,AccelerationX,AccelerationY,AccelerationZ,GyroscopeX,GyroscopeY,GyroscopeZ,Label
0,0.0546875,-0.470657349,-0.8644866940000001,-0.321524501,-0.256350547,-0.650070667,0
1,0.025878906,-0.478775024,-0.92880249,-0.146250159,-0.464345038,-0.887411892,0
2,0.067138672,-0.42594909700000005,-0.8777008059999999,-0.036815006000000004,-0.068585984,-0.780473173,0
3,0.0730896,-0.42428588899999997,-0.8466186520000001,-0.074183151,0.236371517,-0.603916228,0
4,0.077804565,-0.401306152,-0.841629028,0.01395816,-0.337106645,-0.670155168,0
5,0.100067139,-0.43017578100000003,-0.8143157959999999,-0.09752762300000001,-0.399236351,-0.608359754,0
6,0.036178589,-0.424942017,-0.8947753909999999,0.048731588,-0.144245058,-0.544423342,0
7,0.10108947800000001,-0.44654846200000003,-0.9026184079999999,0.5483443139999999,-0.19815249699999998,-0.47106978299999996,0
8,0.150100708,-0.49395752,-0.8359222409999999,0.604797244,-0.655439079,-0.365416855,0
9,0.07855224599999999,-0.49357605,-0.924758911,0.143998712,-0.594347239,-0.48171523200000005,0
10,0.143692017,-0.493484497,-0.930847168,0.132560179,-0.312210351,-0.441429585,0
11,0.155349731,-0.536819458,-0.836288452,0.30868381300000003,-0.724095404,-0.589158356,0
12,0.13735961900000002,-0.518463135,-0.885559082,0.5440793039999999,-0.8631406429999999,-0.7162132259999999,0
13,0.12991333,-0.570678711,-0.82472229,0.167004704,-0.650474429,-0.7617686990000001,0
14,0.11880493199999999,-0.547439575,-0.88508606,-0.23019832399999998,-0.534102559,-0.664110065,0
15,0.076309204,-0.535247803,-0.945922852,0.38626673799999994,-0.408989638,-0.8601264359999999,0
16,0.16305542,-0.508270264,-0.737838745,0.492081314,-0.330391496,-0.914385676,0
17,0.233184814,-0.532272339,-0.627456665,0.22840867899999998,-0.34172377,-0.910131037,0
18,0.231918335,-0.471069336,-0.722473145,0.083796896,-0.568354785,-0.72631222,0
19,0.227890015,-0.5143127439999999,-0.785919189,0.17336379,-0.282901466,-0.7869630459999999,0
20,0.2840271,-0.538452148,-0.6821594240000001,0.008914133000000001,-0.625206113,-0.49585956299999995,0
21,0.22000122100000002,-0.578125,-0.6494293210000001,-0.488859445,-0.643831193,-0.195708245,0
22,0.229675293,-0.587753296,-0.7445068359999999,-0.680764675,-0.496959716,-0.042147987000000005,0
23,0.20825195300000002,-0.527832031,-0.868377686,-0.48126676700000004,-0.17370840899999998,0.16670163,0
24,0.22479248,-0.547119141,-0.8362426759999999,-0.460698634,0.119802564,0.315285772,0
25,0.18420410199999998,-0.514419556,-0.8425445559999999,-0.732377827,0.574563444,0.439196795,0
26,0.18057251,-0.534729004,-0.904388428,-0.9472541809999999,1.053735018,0.585934579,0
27,0.053817749000000005,-0.551635742,-0.932189941,-0.7526753540000001,0.885798812,0.297174424,0
28,0.074996948,-0.51663208,-0.8752136229999999,-0.890372217,0.73879683,-0.024643295,0
29,0.107284546,-0.45195007299999995,-0.9786529540000001,-0.7649429440000001,0.7804989809999999,-0.015250325,0
30,0.036392212,-0.42329406700000005,-0.8691864009999999,-0.786770463,0.429110348,-0.333952665,0
31,0.119125366,-0.414459229,-0.878417969,-0.38717886799999995,0.23665009399999998,-0.24922899899999998,0
32,-0.022460938,-0.345397949,-0.583435059,-1.09653604,0.031172033,-0.904312551,0
33,-0.884475708,-0.46952819799999995,-1.460235596,-0.571024358,0.28961238300000003,-2.769941092,0
34,0.852737427,0.37046814,-0.775360107,-0.42362982,-1.389008164,-0.14893968400000002,0
35,0.190765381,-0.062362670999999995,-0.843811035,-0.39151850299999996,-0.210659772,-0.783245802,0
36,0.106201172,0.029144287,-0.584838867,0.593958676,-0.426009625,-4.498813152,0
37,0.281326294,-0.47413635299999995,-0.814361572,0.820331633,5.360295773,-1.7005378009999998,0
38,0.015762329,-0.034225464,-0.58416748,-0.136201784,1.820698023,-0.9076878429999999,0
39,0.532974243,0.10841369599999999,-0.661270142,2.473448038,2.345258236,-0.425647169,0
40,0.6363830570000001,0.098327637,-0.41874694799999995,0.014349643999999998,2.3592875,-2.824881792,0
41,0.590133667,0.128982544,-0.439453125,-0.771090031,1.74594152,-2.354656696,0
42,0.512939453,0.544113159,-0.6599426270000001,-1.715699434,2.590140104,-3.327910423,0
43,0.668533325,0.636367798,-0.34538269,-1.927899361,2.773732662,-3.3794832230000003,0
44,0.8750152590000001,0.746704102,-0.872512817,-0.374511033,3.577107906,-3.2696938510000004,0
45,0.6977844240000001,0.809265137,-0.5559997560000001,1.142588019,3.946909428,-3.4167108539999997,0
46,0.896652222,1.0520629879999999,-0.343673706,1.189866543,3.7132647039999997,-5.100299835,0
47,1.656417847,1.046401978,-0.122589111,0.872551978,2.5446214680000003,-3.9360525610000003,0
48,1.4812316890000001,1.029815674,-0.134552002,-0.6051239970000001,-0.077869765,-2.8020145889999997,0
49,1.606521606,1.1998596190000002,-0.47381591799999995,-1.817932844,-2.705421448,-2.208181858,0
50,1.6456909180000001,0.785873413,-0.8190155029999999,-0.588934124,-3.727334738,-0.565188289,0
51,1.6102905269999999,0.181762695,-0.42388916,0.433972478,-4.452951908,1.6297425030000001,0
52,1.203567505,0.40476989700000005,-0.043548584,-0.036572392999999995,-3.030472755,3.613375664,0
53,0.660293579,0.90284729,-0.08245849599999999,0.312465489,0.6069088579999999,3.5198721889999995,0
54,0.440963745,0.909454346,-0.8086090090000001,2.700551271,4.21178627,2.389482737,0
55,0.811080933,0.729278564,-0.584472656,3.171882391,3.182038307,1.8963075880000002,0
56,0.7498016359999999,0.5426940920000001,-0.23851013199999999,1.5208231209999998,0.40206274399999997,1.127241254,0
57,0.624847412,0.40084838899999997,-0.08152771,1.253303289,1.7896373269999999,0.336480021,0
58,0.613708496,0.32798767100000004,0.010818481000000001,1.454816937,1.8831340069999998,0.994563103,0
59,0.45774841299999997,0.297897339,-0.201858521,2.28726244,3.4444506169999998,0.6987495420000001,0
60,0.560668945,0.164123535,-0.015853882,2.0241842269999997,2.477918148,0.41629016399999996,0
61,0.634353638,0.194000244,0.183807373,1.234202623,1.08380425,0.11998339699999999,0
62,1.132720947,0.076324463,0.358108521,0.340174884,0.753872454,0.627680957,0
63,1.208908081,-0.046112060999999996,0.577194214,-0.576620996,1.070225596,1.070685029,0
64,1.167114258,0.214981079,0.08570861800000001,0.34672758,0.723764062,1.164156079,0
65,1.178787231,0.08102417,0.233932495,-0.04060575,0.022347916000000002,1.459628224,0
66,0.9976501459999999,0.22390747100000002,0.08241272,-0.903635025,-0.5393393639999999,0.98153919,0
67,1.08770752,0.199691772,-0.307022095,0.020869063,-0.6746655109999999,0.38855812,0
68,0.767929077,0.34165954600000004,-0.19035339399999998,1.130910873,-0.21610806899999999,0.366161466,0
69,0.843276978,0.529647827,-0.282821655,1.6709767580000001,1.247358084,-0.243635565,0
70,1.0354461670000001,0.302810669,-0.155792236,1.05411458,0.171589598,-0.187005043,0
71,0.848678589,0.271270752,-0.30322265600000003,0.101250723,-0.935610533,-1.0945479870000001,0
72,0.688232422,0.09173584,0.08013916,0.29944238100000004,0.23795265,-1.736028671,0
73,0.74520874,0.030609131,-0.13873291,0.997837722,0.734784007,-3.055916548,0
74,0.868652344,0.082321167,0.255905151,0.23930552600000002,0.440786719,-4.345694065,0
75,0.8611907959999999,0.48001098600000003,0.09800720199999999,-0.504286885,0.358208209,-5.526961327,0
76,0.787826538,0.598922729,-0.012527466000000001,0.443476498,0.62445426,-5.965261459,0
77,0.9541015629999999,0.9943389890000001,0.337692261,0.330354214,-1.648171782,-0.534609616,0
78,0.629348755,0.828292847,0.32942199699999997,0.0027523770000000003,-0.502230644,0.5173885229999999,0
79,0.602630615,0.817886353,0.046966553,0.072200693,-0.546101391,-0.564180315,0
80,0.796020508,0.936767578,0.163238525,0.16693759,-0.735651135,-1.1890561579999999,0
81,0.71875,0.8225097659999999,0.35517883299999997,-0.8460023999999999,-0.280639648,-0.42889463899999997,0
82,0.706710815,0.7592468259999999,0.23312377899999998,-0.705383778,0.955591202,-0.793301105,0
83,0.672286987,0.8228302,0.23738098100000002,-0.299215198,2.088515997,-1.440696955,0
84,0.30241394,0.68687439,0.21054077100000002,-0.514485419,1.9931217430000001,-1.836100101,0
85,0.167984009,0.656326294,0.165725708,-1.107423902,1.17701304,-2.9143776889999997,0
86,0.008270264,0.405410767,0.172698975,-1.925168514,-1.64806819,-3.762104988,0
87,0.060699462999999995,0.323516846,0.33766174299999996,-2.015857458,-5.22172308,-2.3552772999999996,0
88,-0.026519775,0.8838653559999999,0.599197388,1.237408757,-2.4727766509999998,-0.527657151,0
89,-0.30166626,2.8043518069999998,-0.34069824200000004,2.374489069,5.107953072,1.06889081,0
90,0.143966675,1.2781066890000001,0.03302002,-1.517137885,-0.883010745,1.79112494,0
91,-0.147476196,0.217788696,-0.141830444,0.167871565,2.04634285,0.762018561,0
92,-0.29989624,0.419570923,-0.18482971199999998,1.7861632109999999,0.256787837,-0.09294698400000001,0
93,-0.28491210899999997,0.77671814,-0.136993408,2.207163811,-0.909115314,-0.321433425,0
94,-0.261627197,1.46383667,0.305541992,1.335071921,-0.46300172799999995,-0.73396641,0
95,1.088989258,1.791473389,1.50541687,-1.188509107,-0.571180403,1.3876733780000001,0
96,0.327133179,0.38552856399999996,0.322525024,0.423821568,0.614895403,-0.20910795,0
97,-0.5096588129999999,1.9819946290000001,-0.390548706,0.47816550700000005,-1.6803011890000001,-0.969065189,0
98,-0.07510376,1.01600647,-0.317184448,-0.38101738700000004,-0.798618913,0.66589123,0
99,-0.113479614,0.24180603,-0.261032104,0.491125256,0.98725301,-0.193015799,0
100,-0.09753418,0.915008545,-0.306793213,0.526901364,2.2666890619999998,-1.564361334,0
101,0.17233276399999997,1.364532471,-0.625518799,1.268833756,0.07339538599999999,-0.171169087,0
102,0.12289428699999999,0.8515777590000001,-0.435668945,1.864578724,-1.7913553709999999,0.25104475,0
103,0.096466064,0.719848633,-0.102371216,1.44551158,-2.205571651,0.041878209,0
104,0.038391113,1.0902709959999999,-0.032318115,0.592093945,-3.095996618,-0.162694111,0
105,0.26342773399999997,1.147201538,0.09291076699999999,1.196596384,-4.513986111,-0.343568295,0
106,0.286819458,0.9460601809999999,0.079223633,0.040884849,-0.19823372399999997,-0.24872539899999999,0
107,0.161972046,1.024765015,0.0029296879999999997,0.21026003399999998,0.98288697,-0.073316023,0
108,0.035339355,1.0304412840000001,-0.051773071,-0.12219888,0.69212544,-0.211502388,0
109,-0.0018157960000000002,1.018066406,-0.176574707,0.19325014899999998,-0.965843558,-0.17491641600000002,0
110,0.153823853,1.022750854,-0.136749268,0.032429047,-1.4307537080000001,-0.39817401799999996,0
111,0.273773193,0.949050903,-0.154266357,-0.21589554800000002,-0.058032941,-0.328284413,0
112,0.329711914,0.987640381,-0.077209473,0.173768058,-1.24580729,-0.176668778,0
113,0.214904785,1.2804870609999999,0.02784729,-0.045224205,-1.9889779090000002,0.46224647799999996,0
114,0.232894897,1.353988647,0.351577759,-1.058596134,-1.589835525,0.695041895,0
115,0.186859131,0.836471558,0.533111572,-2.7364828589999997,0.438979745,1.62541616,0
116,-0.262313843,1.06867981,0.068145752,-3.011666775,1.6825695040000002,1.7990922930000002,0
117,-0.35708618200000003,1.746963501,-0.405044556,-2.663373709,-1.333788872,0.791995585,0
118,-0.22973632800000002,1.266586304,-0.09718322800000001,-0.620096028,-1.7296386959999999,0.706321478,0
119,0.250305176,0.9994812009999999,0.41610717799999997,-1.151535153,0.9152304529999999,1.005786777,0
120,0.184371948,0.737121582,-0.19296264600000002,-0.82279402,1.042987943,0.9802789690000001,0
121,-0.020324707,0.660202026,-0.093078613,-1.118300438,0.862240195,0.24048051199999998,0
122,-0.197296143,0.546722412,-0.07170105,-0.29841333600000003,0.480883271,-0.06471242,0
123,-0.218902588,0.544143677,-0.088500977,0.9239978190000001,-0.25228843100000004,-0.385001749,0
124,-0.1771698,0.669631958,-0.02331543,1.562827587,-1.165028811,-0.8131685259999999,0
125,-0.041137695,1.031280518,0.32723999,1.561349273,-1.163765669,-0.7750477790000001,0
126,0.926345825,1.894989014,1.386520386,0.316326022,1.361961365,-0.007003315,0
127,0.552276611,0.530670166,0.92427063,-0.465672076,-0.722706258,-0.010041449000000001,0
128,0.10925293,1.71762085,-0.369247437,1.7774738069999998,0.23642398399999998,-0.46509206299999994,0
129,0.159912109,1.216400146,-0.1900177,-0.128737211,-0.5916968579999999,0.7401942009999999,0
130,-0.267730713,0.24609375,-0.024230957,0.608189821,-0.886369228,-0.005673865,0
131,-0.24487304699999998,1.077911377,-0.009780884,0.8661044840000001,-0.938832164,-0.7797165509999999,0
132,-0.07043457,1.039855957,-0.23703002899999998,0.03242958,-1.065112352,-0.451031089,0
133,0.10324096699999999,0.973724365,-0.231796265,-0.121379957,0.018631475,-0.6934562329999999,0
134,0.27645874,1.056976318,-0.31362915,0.46679195799999995,1.4954242709999999,-0.550408304,0
135,0.298706055,0.98085022,-0.193069458,0.8855657579999999,1.3917682169999999,-0.205821335,0
136,0.150268555,0.925369263,0.016159058,0.762569547,-2.586670399,0.165646493,0
137,0.08830261199999999,1.05178833,0.063598633,0.07142438,-3.914370537,0.177005142,0
138,0.190643311,1.074157715,0.115615845,0.17153100699999999,-2.664824247,-0.067556143,0
139,0.21284484899999997,0.9632263179999999,0.055023193,-0.246539742,0.839687765,0.05039686,0
140,0.029846191,1.0044555659999999,-0.081115723,-0.274493605,1.014597774,-0.07516852,0
141,0.056274414,0.9553222659999999,-0.14637756300000002,-0.038232606,-0.330223709,-0.11638359699999999,0
142,0.070220947,0.981613159,-0.126922607,0.217912883,-1.4463531969999999,-0.213674471,0
143,0.12663269,1.00302124,-0.08596801800000001,0.271719396,-1.472257972,-0.381710619,0
144,0.235168457,1.014404297,-0.048324585,0.287612617,-1.091082215,-0.422089458,0
145,0.290710449,0.9804534909999999,-0.029922485,0.015584553000000001,-0.519412041,-0.306920528,0
146,0.17262268100000003,0.9984436040000001,-0.02130127,-0.161893561,-0.568151355,-0.160317242,0
147,0.13258361800000001,1.173904419,-0.041824341,-0.462837696,-0.453473479,0.258497328,0
148,-0.026062012000000002,1.17326355,-0.07925415,-0.370462209,-1.413068175,0.187926233,0
149,-0.090591431,0.96812439,-0.044662476,-0.715920269,-1.345826626,0.078953408,0
150,-0.187789917,0.86428833,-0.03692627,-0.8619629740000001,-0.8006540540000001,-0.041394845,0
151,-0.133804321,0.989883423,-0.032989502000000004,-0.8078973290000001,-0.541052878,-0.142727852,0
152,-0.081008911,1.044006348,-0.015197753999999999,-0.877412498,-0.976003528,-0.10017986599999999,0
153,-0.141876221,1.01361084,-0.037353516,-0.8832035659999999,-1.302551031,-0.162384912,0
154,-0.134719849,0.971511841,-0.034255981,-0.563198626,-1.149712682,-0.262278229,0
155,-0.056121826,0.952972412,0.033477783,-0.131240577,-0.756290853,-0.20227055300000002,0
156,-0.14514160199999998,0.9576873779999999,-0.041351318,-0.215705395,-1.372800112,-0.09230595800000001,0
157,-0.289474487,0.951599121,-0.053115845,0.09838409699999999,-1.408798099,-0.33757537600000004,0
158,-0.26461792,0.9567565920000001,0.018463135,0.366794258,-0.690775275,-0.61690557,0
159,-0.020050049,0.952285767,0.058288574,0.5028167960000001,-0.583283424,-0.621299744,0
160,0.12612915,1.0109558109999999,0.109512329,0.659716368,-0.9116373059999999,-0.36666134,0
161,0.21476745600000002,1.006057739,0.12409973099999999,0.546251059,-1.864435911,0.062832229,0
162,0.07545471200000001,0.929946899,0.039489746,0.33424800600000004,-2.182286024,0.344614655,0
163,-0.250549316,1.000137329,0.055374146,0.609921932,-1.553802729,0.040306944,0
164,-0.35609436,1.020523071,0.17779541,0.41555354,-0.981850743,-0.35046827799999997,0
165,-0.253356934,1.056259155,0.17898559600000002,-0.174828798,-1.314973116,-0.525022745,0
166,-0.090393066,1.003814697,0.015457153000000001,-0.489438415,-1.672726393,-0.5366961960000001,0
167,0.066223145,0.946731567,-0.08239746099999999,-0.459740162,-1.551064134,-0.36165007899999996,0
168,0.034194946000000004,0.943984985,-0.077835083,0.217321664,-1.358012438,-0.08424377400000001,0
169,-0.083755493,0.9255676270000001,0.171890259,0.5649992229999999,-0.605181754,0.14066150800000002,0
170,0.086486816,0.8883666990000001,0.12019348099999999,0.022770292999999997,-1.731684566,0.567070365,0
171,0.038925171,1.017974854,-0.069290161,0.38684597600000004,-1.56224227,0.672100365,0
172,-0.033416747999999996,0.9886474609999999,0.026947021,1.04383719,-0.567488194,0.611753106,0
173,-0.13612365699999998,1.081558228,0.018417358,1.03390038,-0.867154777,0.624317408,0
174,-0.281829834,1.3836059569999999,0.174179077,1.034687877,-1.130616307,0.172965392,0
175,0.14491272,1.018936157,0.369110107,-0.065698855,-1.895059586,0.376727849,0
176,-0.037033081,0.821090698,-0.18811035199999998,-1.310116291,-2.761835814,0.648932219,0
177,-0.08578491199999999,0.874832153,-0.39437866200000005,-0.09494488699999999,-1.7406351569999998,0.035359856,0
178,0.012130736999999999,1.0209350590000001,-0.301254272,0.250054836,0.48343724,-0.063642092,0
179,0.232711792,1.057891846,-0.288757324,-0.148731157,0.757114828,-0.11714074,0
180,0.448852539,0.988311768,-0.24617004399999998,0.53463757,-1.380423665,-0.002478604,0
181,0.470825195,0.891616821,-0.060165405,0.016346483000000002,-1.664626718,0.64517796,0
182,0.15953064,0.981811523,-0.136856079,0.087726653,-1.9443978069999999,0.629021585,0
183,0.046646118,0.936218262,-0.17218017600000002,0.30515939,-1.4091893430000002,0.40889161799999996,0
184,-0.0057525630000000005,0.9807739259999999,-0.141448975,0.25162929300000003,-1.104377508,0.12564101800000002,0
185,0.098419189,1.028137207,-0.132446289,0.304374009,-1.3739181759999999,-0.027759192999999998,0
186,0.25700378399999996,1.010360718,-0.05859375,0.234156311,-1.95897758,0.102056064,0
187,0.252212524,0.9612426759999999,-0.031021117999999997,-0.0065047709999999995,-2.165641785,0.243383899,0
188,0.123184204,0.966567993,-0.069778442,0.04200444,-1.377177,0.09900488,0
189,0.137466431,0.971939087,-0.11369323699999999,0.10085630400000001,-0.8903474809999999,-0.103091501,0
190,0.157012939,0.959976196,-0.149017334,0.18668305899999998,-0.930577159,-0.204405069,0
191,0.159744263,1.0398254390000001,-0.097610474,0.207545206,-1.76232338,-0.21605426100000003,0
192,0.222305298,1.022735596,-0.07263183599999999,0.16810537899999997,-1.798658729,-0.270450652,0
193,0.291656494,0.968139648,0.006011963,0.150574863,-2.012339592,-0.22912666199999998,0
194,0.27151489300000003,0.999359131,0.090911865,-0.147341251,-1.7572942969999998,0.005273858,0
195,0.432388306,1.175338745,0.072280884,-0.621649444,-0.7763364909999999,0.18481431899999998,0
196,0.542144775,1.155731201,0.181915283,-1.301365852,0.264102489,0.911153972,0
197,-0.11570739699999999,1.0424194340000001,0.463302612,-1.9401069880000001,1.099303365,1.356010795,0
198,-0.307632446,1.3462371830000002,0.06970214799999999,-3.200546741,0.769411445,0.786172092,0
199,-0.209274292,1.4298400880000002,-0.567214966,-2.517506599,-2.16490221,0.369276583,0
200,0.17327880899999998,1.108596802,-0.262008667,-0.358315021,0.289903998,0.544215918,0
201,0.473678589,0.97277832,0.46713256799999997,-0.6086404320000001,-0.442743331,1.02402854,0
202,0.157714844,0.841369629,0.04019165,-1.087119102,1.110646248,0.9733078479999999,0
203,-0.10194397,0.7460784909999999,-0.127166748,-0.550717711,1.003055096,0.797673702,0
204,-0.142150879,0.658981323,-0.122543335,0.260064065,0.5114454629999999,0.46681618700000005,0
205,-0.102111816,0.6913299559999999,-0.10765075699999999,0.725332677,0.275380433,-0.093976296,0
206,-0.15040588400000002,0.684204102,-0.049041747999999996,1.1891011,0.324596465,-0.596008241,0
207,-0.271499634,0.9645080570000001,0.135025024,1.3908175230000002,0.391020745,-1.301246643,0
208,0.7503967290000001,1.5976867680000002,1.635009766,-0.34206733100000003,2.352385521,-0.258236617,0
209,0.9001464840000001,0.976409912,0.7076873779999999,0.18603804699999998,0.7326595779999999,0.648445904,0
210,0.010467529,0.773529053,0.098861694,0.293577015,-0.59529376,0.725259423,0
211,-0.203765869,1.161117554,-0.453079224,-0.068003818,-2.472370148,-0.030656179,0
212,-0.409164429,1.4104309080000001,1.284759521,0.063502274,3.4436547760000003,-0.412048012,0
213,0.312774658,1.029983521,-0.438812256,0.80003196,2.247301579,-0.035053857,0
214,0.070785522,0.7111358640000001,-0.32951355,0.238816842,0.033296436,0.05196413,0
215,-0.039093018,0.878494263,-0.272125244,0.8540315629999999,-1.861390591,0.06988267599999999,0
216,0.039428711,1.066421509,-0.101425171,0.491679996,-0.708703637,-0.229009479,0
217,0.160522461,0.9372253420000001,-0.17141723600000003,0.815998137,1.274290562,-0.304813176,0
218,0.300674438,1.04800415,-0.083847046,1.202400208,-0.04499650400000001,0.031859927,0
219,0.108230591,0.924560547,0.027923583999999998,0.43523243100000003,-1.438197732,0.239583835,0
220,0.02822876,0.978683472,-0.014678955,0.203703865,-1.484552741,-0.044587974,0
221,0.088012695,1.0405883790000001,-0.013259888000000001,0.23143269100000002,-0.292531997,-0.360499322,0
222,0.280151367,0.9906005859999999,-0.091247559,0.165904284,0.475901037,-0.182314143,0
223,0.245300293,0.967346191,-0.152496338,0.33889365200000005,0.084538318,-0.077602915,0
224,0.096633911,0.976852417,-0.114730835,0.446279228,-0.863812268,-0.050273824,0
225,0.044784545999999995,0.9750671390000001,-0.070297241,0.311308354,-1.081088424,-0.11551567900000001,0
226,0.062545776,1.017410278,-0.041397095,0.221439973,-0.721831143,-0.320798248,0
227,0.19110107399999998,0.9997253420000001,-0.08999633800000001,0.016272979,-0.22873997699999998,-0.35464757700000005,0
228,0.17608642600000002,1.0023803709999999,-0.15776062,0.096157961,-0.09448096199999999,-0.353422791,0
229,0.13218689,0.9987030029999999,-0.174621582,0.132585481,-0.28689596100000003,-0.40776512,0
230,0.165740967,0.9726104740000001,-0.15930175800000002,0.23195387399999998,-0.451474249,-0.45232725100000004,0
231,0.230209351,0.9580688479999999,-0.040908812999999995,0.25219228899999996,-0.906309426,-0.43817895700000004,0
232,0.35095214799999996,1.0903930659999999,0.007644653,-0.15568280199999998,-0.468461484,-0.285292715,0
233,0.434234619,1.111419678,0.036437988,-0.369211853,0.35904657799999995,0.090369843,0
234,0.299423218,1.067855835,0.143951416,-0.808933318,1.1710520979999999,0.593780279,0
235,-0.005569458,0.943969727,0.301223755,-1.488957644,1.220577002,0.888130128,0
236,-0.214569092,1.089477539,0.24395752,-2.210036755,1.255992532,0.659168601,0
237,-0.0022277829999999997,1.447067261,-0.139816284,-2.631948233,-0.517653286,0.577541351,0
238,0.111846924,1.233535767,-0.302108765,-1.358157039,-0.884438992,0.656454265,0
239,0.193206787,1.106430054,-0.005249023,-0.23795238100000002,0.024161795,0.865914583,0
240,0.332473755,0.8880157470000001,0.071075439,-0.438948065,1.478286147,1.371967673,0
241,0.21633911100000003,0.798339844,-0.064956665,-0.827962935,2.264171124,1.010877609,0
242,-0.054351807,0.826461792,-0.078994751,-0.09630283699999999,1.5047653909999998,0.805525541,0
243,-0.228485107,0.741958618,-0.016708373999999998,0.409063667,0.655694246,0.56763202,0
244,-0.188537598,0.63583374,-0.015914917,0.8770583270000001,0.025951706,0.046360042000000004,0
245,-0.196990967,0.6966857909999999,0.009490967,1.289783597,0.12677899,-0.536114812,0
246,-0.112960815,1.054611206,0.225143433,1.413110018,0.294402331,-1.1402422190000001,0
247,0.835067749,1.4476928709999999,1.174072266,-0.376532882,1.778032064,-0.194709301,0
248,0.893508911,1.071380615,0.685379028,0.529673457,0.763197243,0.438267887,0
249,0.234542847,0.877807617,0.28581237800000003,0.140125945,-0.241278395,0.624557614,0
250,-0.35859680200000005,1.081039429,-0.054870605,0.243857935,-1.02942121,0.06401014299999999,0
251,-0.146759033,1.264633179,-0.049560547,0.690829337,0.120509639,-0.456942767,0
252,0.50112915,1.051681519,0.160400391,0.31014508,0.7987715009999999,0.002339054,0
253,0.035125732,0.5677185060000001,-0.30618286100000003,-0.009158345,0.680812359,-0.425478071,0
254,-0.007781982,0.7887268070000001,-0.386932373,0.361065775,-0.024325846,-0.498310715,0
255,0.061553955,1.232116699,-0.483398438,0.752535045,0.39943555,-0.502777398,0
256,0.1534729,0.957992554,-0.31549072300000003,1.211743832,0.77973628,-0.21576798,0
257,0.14833068800000002,0.880233765,-0.10745239300000001,1.245122552,-0.8533937340000001,-0.10075324,0
258,0.096862793,1.023345947,0.167755127,0.887551427,-3.467331648,-0.254959583,0
259,0.261611938,1.046569824,0.18141174300000001,-0.009077384,-1.797144532,-0.373426586,0
260,0.37837219200000005,0.9544982909999999,0.046264648,0.085375614,0.786055446,-0.21491870300000002,0
261,0.19250488300000002,0.964904785,-0.138320923,0.30595991,2.186966896,-0.14157258,0
262,0.11888122599999999,0.978485107,-0.218734741,0.7675925490000001,0.795006037,-0.21751500699999998,0
263,0.070144653,1.04145813,-0.209823608,0.76605618,-1.595706224,-0.238424823,0
264,-0.09072876,1.1593475340000001,-0.000396729,1.149400115,-2.173363686,-0.368235826,0
265,0.21542358399999997,1.035369873,0.300216675,-0.412341744,0.058647599,-0.9000517729999999,0
266,0.392974854,0.964996338,-0.110061646,-1.01181376,0.775654197,-0.508808613,0
267,0.5110626220000001,1.274383545,-0.224624634,-0.405717403,0.980208099,-0.200452939,0
268,0.644546509,1.2096557620000001,0.06288147,-0.634477913,-0.31298533100000003,0.444660276,0
269,0.13670349099999998,0.7990722659999999,0.455657959,-1.663410425,0.592298985,1.593592405,0
270,-0.42788696299999995,1.21043396,0.23139953600000002,-2.932307005,1.9003119469999998,0.9670822020000001,0
271,-0.216262817,1.575714111,-0.390655518,-2.58949542,-1.247514963,0.5045768620000001,0
272,0.15602111800000001,1.1041564940000002,-0.22328186,-1.03764987,0.367087185,0.590186059,0
273,0.26380920399999996,0.94732666,0.019180298000000002,-0.299861014,1.3915051219999999,0.8106657270000001,0
274,0.387268066,0.815475464,-0.059997559000000006,-0.06692044400000001,1.730433106,1.575289369,0
275,0.267730713,0.8460083009999999,-0.18649292,-0.252370209,2.457947016,1.602741718,0
276,-0.0703125,0.844848633,-0.247772217,0.18800932199999998,1.789532661,0.8653571609999999,0
277,-0.303695679,0.729919434,-0.143371582,0.8104198579999999,1.3425586219999999,0.638381302,0
278,-0.382827759,0.667572021,-0.095809937,1.3936095240000002,0.211499199,0.237230122,0
279,-0.387649536,0.813751221,-0.053070068,1.673767209,-1.0637350079999999,-0.754998446,0
280,0.10594177199999999,1.479110718,1.0478973390000001,-0.48817235200000003,1.06699872,-0.8021243809999999,0
281,1.427139282,1.4465026859999999,1.029464722,-0.457087934,2.150537968,1.0410581829999999,0
282,0.324859619,0.7533111570000001,0.313186646,0.466682494,-0.987143815,0.462996423,0
283,-0.155136108,0.571640015,0.070526123,-0.11418356,-1.503101707,0.33982893799999997,0
284,-0.10774231,0.856399536,-0.500534058,0.933472574,-0.817872763,-0.7353879809999999,0
285,-0.055450439000000004,2.019454956,0.39987182600000004,0.795740008,2.769026756,-1.534919858,0
286,0.185684204,1.014175415,-0.323013306,0.275203884,0.7679944040000001,0.710698605,0
287,-0.18963623,0.265670776,-0.40295410200000004,0.5507190820000001,-1.344480634,-0.241884798,0
288,-0.23170471199999998,0.744613647,-0.52885437,0.29852703199999997,-2.9294893739999996,-0.23057834800000002,0
289,-0.14680481,1.296340942,-0.613052368,1.028379917,-0.676009357,-0.30259636,0
290,0.016693115,0.967895508,-0.206588745,1.16284287,0.880232811,-0.499608755,0
291,0.165664673,0.9881744379999999,-0.015335083000000001,1.16647625,-1.277558804,-0.7501800059999999,0
292,0.5201721189999999,1.016860962,0.17405700699999999,0.467235625,-4.526360989,-0.073957846,0
293,0.40412902799999995,0.953994751,0.003189087,-0.753153145,-0.545062244,-0.006360694,0
294,0.346817017,0.9599609379999999,-0.187850952,0.586114347,0.9662268159999999,-0.16847103800000002,0
295,0.143692017,0.941467285,-0.09027099599999999,0.567643464,1.23651576,-0.17297044399999997,0
296,0.057922363,0.951080322,-0.127197266,0.582874358,-0.297118217,-0.040680852,0
297,-0.047866821,0.959945679,-0.194534302,0.7661488059999999,-2.737686872,-0.22777164,0
298,-0.072036743,1.152328491,0.055847167999999996,0.651432872,-1.857112765,-0.595283091,0
299,0.31317138699999997,1.0249633790000001,0.104537964,-0.61261332,-0.218204767,-0.73923707,0
300,0.40057373,1.04335022,-0.12484741199999999,-0.626264453,0.129167035,-0.650134325,0
301,0.520385742,1.0363006590000001,-0.090515137,-0.17502933699999998,0.018143849,-0.203491345,0
302,0.6622161870000001,1.321228027,0.130523682,-0.735278785,-0.620294154,0.562104106,0
303,0.396499634,1.008331299,0.417953491,-2.280256987,1.006238103,1.72398138,0
304,-0.316421509,1.230911255,0.166885376,-2.806845903,1.711789966,1.736959457,0
305,-0.47061157200000003,1.651779175,-0.470275879,-2.517135859,-1.811431885,0.560390353,0
306,0.049331665,1.086334229,-0.075942993,-1.154705644,0.606476903,0.543218553,0
307,0.36108398399999997,0.98727417,0.17875671399999998,-0.830072701,2.649349689,0.863364875,0
308,0.595016479,0.8435058590000001,-0.19798278800000002,-0.575202286,1.582118154,1.914697766,0
309,0.081634521,0.7521514890000001,-0.20251464800000002,-0.730163693,2.108631372,1.049586892,0
310,-0.20590210000000003,0.732162476,-0.258407593,-0.112344921,1.459146976,0.631121218,0
311,-0.339889526,0.622650146,-0.180725098,0.818095088,1.072380185,0.501026332,0
312,-0.3175354,0.567489624,-0.081054688,1.6424494980000002,-0.163356707,0.005405152,0
313,-0.386138916,0.7983703609999999,-0.05140686,2.1270792480000003,-1.1151736970000001,-0.8974333409999999,0
314,0.274215698,1.7227630619999998,1.44493103,-0.858451307,1.052291632,-0.733775198,0
315,1.452224731,1.4590301509999999,0.9733428959999999,-0.379131615,1.255880713,1.4655056,0
316,0.192321777,0.5530700679999999,0.161117554,0.583213091,-0.715085924,0.20993219300000002,0
317,-0.325576782,0.918228149,-0.21685791,0.439789891,-3.047062397,-0.08930377699999999,0
318,-0.093673706,1.6845245359999999,-0.20112609899999997,0.835930049,-0.459633112,-0.9753896590000001,0
319,0.294631958,1.0776977540000001,-0.181625366,-0.033459157,2.758223057,0.18646548699999999,0
320,-0.033813477,0.40055847200000005,-0.31201171899999997,0.48461622,0.9420412779999999,-0.374683052,0
321,-0.049804688,0.799057007,-0.38166809100000004,0.263066262,-2.209377289,-0.473617643,0
322,-0.009719849000000001,1.3385620120000001,-0.5192565920000001,0.615551353,-1.266144753,-0.287829667,0
323,0.14793396,0.87008667,-0.278503418,1.196131349,1.252968788,-0.479083776,0
324,0.18208313,0.822418213,-0.076950073,1.137873411,0.379160911,-0.55580014,0
325,0.313659668,1.041702271,0.061767578,1.099390984,-2.67717123,-0.30040830399999996,0
326,0.23211669899999998,1.009262085,0.067153931,0.6566686629999999,-1.848759174,-0.081642665,0
327,0.341125488,1.0866088870000001,0.16209411599999998,0.7146110529999999,-0.5255396960000001,-0.150951967,0
328,0.203887939,0.980499268,0.095169067,0.00044155199999999995,0.44686031299999995,0.147026464,0
329,0.126449585,0.9834594729999999,-0.067962646,-0.025448902000000002,0.146942049,0.119180188,0
330,0.10168457,0.9709167479999999,-0.13694763199999999,0.046589072999999995,-0.502259672,0.054154314,0
331,0.041595459,0.856887817,-0.19952392600000002,0.27757009899999996,-1.425608516,-0.157593355,0
332,0.040863037000000005,0.9313964840000001,-0.167480469,0.552718818,-0.794303775,-0.5002444389999999,0
333,0.180969238,1.009170532,0.074691772,0.5037225479999999,-0.911219716,-0.73604846,0
334,0.33493042,1.001358032,-0.026535034,-0.7071371670000001,-0.225787848,-0.548096418,0
335,0.400970459,1.163452148,-0.185684204,0.024003336,-0.117614783,-0.574510932,0
336,0.34399414100000003,1.017089844,0.017990112,0.040146619,-0.742661059,-0.34408572299999995,0
337,0.49368286100000003,1.343383789,0.143249512,-0.729697347,0.29788228899999997,0.102542616,0
338,0.60874939,1.105651855,0.228225708,-2.285517216,2.064476013,0.647612572,0
339,0.18418884300000002,0.885772705,0.120452881,-2.645097733,2.7999138830000003,1.877746701,0
340,-0.383361816,1.7218170169999998,-0.038909912000000005,-2.430819988,-0.938737631,1.30539608,0
341,-0.26866149899999997,1.513259888,-0.247039795,-1.808501601,-2.9294257160000003,0.9814142579999999,0
342,0.14784240699999998,0.9049530029999999,0.059417725,-0.5612662429999999,2.2731626030000003,1.070716143,0
343,0.46459960899999997,0.9512481690000001,0.189712524,-1.125105977,2.08261466,1.2939519879999999,0
344,0.36555481,0.975799561,0.012588501,-1.213867188,1.4829289909999999,1.2053318020000001,0
345,-0.12307739300000001,0.7336883540000001,-0.116729736,-0.503278613,1.084642887,0.7823643090000001,0
346,-0.117126465,0.6947174070000001,0.034072876,0.017985658999999998,0.33685979200000005,0.9335641859999999,0
347,0.032592773,0.7151489259999999,-0.09170532199999999,0.491037905,0.642686009,0.317245871,0
348,-0.06275939900000001,0.685577393,-0.222808838,1.209913969,0.526091754,-0.048543300000000005,0
349,-0.21960449199999998,0.685836792,-0.10853576699999999,2.086926937,-0.172039673,-0.53740406,0
350,-0.252288818,0.842605591,0.061523438,2.515671015,-0.6874771709999999,-1.251596212,0
351,0.263168335,1.6139373780000001,1.176498413,0.334720731,0.450360507,-0.977693319,0
352,1.370605469,1.5071563719999999,1.33140564,-0.512452126,1.011206269,0.936724007,0
353,0.482315063,0.631942749,0.228775024,0.955863357,0.451411128,0.034465566,0
354,0.003967285,0.8923339840000001,0.062973022,-0.11810959900000001,-0.506601155,0.362865269,0
355,-0.074249268,1.491943359,-0.248138428,0.7915950420000001,-0.340880632,-0.5895237329999999,0
356,0.6463775629999999,1.274703979,0.90814209,0.021860822999999998,-0.43738666200000004,0.11742170199999999,0
357,0.027282715,0.717895508,-0.300598145,0.43598157200000004,2.761898518,0.020519389,0
358,-0.160461426,0.658691406,-0.345153809,0.6812299490000001,0.228095755,-0.829324067,0
359,-0.04977417,1.01361084,-0.49946594200000005,0.55438596,-0.823273659,-0.091422327,0
360,0.011459351000000001,1.097625732,-0.462341309,1.0397777559999999,0.102272309,-0.23309184600000002,0
361,0.08755493199999999,0.9197235109999999,-0.17259216300000002,1.2018707990000002,0.149694413,-0.21765004100000002,0
362,0.11114502,0.985626221,0.024856567000000003,1.451018214,-3.058843613,-0.136987686,0
363,0.14845275900000002,0.979003906,0.203216553,-0.038884018,-3.352620125,-0.32097348600000003,0
364,0.34426879899999996,0.99269104,-0.036254882999999995,-0.694308996,-0.353081882,-0.448031306,0
365,0.432769775,0.967086792,-0.17539978,0.456589103,1.711058617,-0.204427704,0
366,0.304748535,0.9453582759999999,-0.144073486,0.6874191159999999,1.0403833390000001,-0.07226035,0
367,0.12705993699999998,0.999069214,-0.154922485,0.687521398,-1.03521204,0.052349757000000004,0
368,0.010192871,0.990768433,-0.171661377,0.735955,-2.820716858,-0.027432422999999997,0
369,-0.138092041,1.039077759,0.010070800999999999,0.782012224,-2.209545851,-0.339341313,0
370,0.257019043,1.050460815,0.199905396,-0.366557211,-0.153473973,-0.742561996,0
371,0.364501953,1.003570557,-0.11622619599999999,-0.8114060759999999,0.49684464899999997,-0.570975065,0
372,0.482696533,0.979827881,-0.123046875,0.050989948,-0.338053405,-0.383458167,0
373,0.6315155029999999,1.33984375,0.13600158699999998,-0.639151454,-0.788189948,0.415747672,0
374,0.638717651,1.185012817,0.42330932600000004,-2.275974274,1.180271983,1.37104249,0
375,-0.140350342,1.1362915040000001,0.19569397,-3.187330484,2.560856104,1.991545081,0
376,-0.501647949,1.72277832,-0.531219482,-2.822022915,-1.8724105359999998,0.476439774,0
377,-0.099777222,1.1699676509999999,-0.17280578600000002,-1.4733928440000001,-0.473753721,0.768742204,0
378,0.269546509,0.96887207,0.18629455600000003,-0.79631418,3.3722155089999997,0.6748468879999999,0
379,0.512939453,0.826263428,-0.132568359,-0.48062253,0.849373698,1.380218625,0
380,0.31838989300000003,0.784011841,-0.16807556199999998,-0.512620449,1.9828549619999998,1.563755751,0
381,-0.074569702,0.6845703129999999,-0.312667847,0.065896988,1.052205563,0.652080297,0
382,-0.342453003,0.600158691,-0.224197388,1.131360888,0.792640865,0.408896685,0
383,-0.330917358,0.633056641,-0.102355957,1.8544543980000001,0.5425192120000001,0.15839630400000002,0
384,-0.318557739,0.8185729979999999,-0.036849976,2.2720170019999997,-0.13007465,-0.771650136,0
385,0.48889160200000004,1.785903931,1.533599854,-0.9137151240000001,0.207680225,-0.28190732,0
386,1.130523682,1.216873169,1.014877319,-0.549211979,1.208204269,0.683382332,0
387,0.290298462,0.747879028,0.14903259300000002,1.02827549,-0.534332931,0.290424377,0
388,-0.036743164,0.695983887,-0.02255249,0.12171258800000001,-1.034825325,0.208171844,0
389,0.163238525,1.2761993409999999,-0.112686157,0.82675463,0.46386939299999996,-0.780004203,0
390,0.674835205,1.8216094969999999,0.142089844,1.01156342,0.492951125,-0.031371504,0
391,-0.179000854,0.695877075,-0.296539307,-0.038774293,0.190082058,0.588806033,0
392,-0.33627319299999997,0.51008606,-0.435913086,1.0611330270000001,-0.654589534,-0.70600456,0
393,-0.40155029299999995,0.957122803,-0.445053101,0.777896285,-1.187458277,-0.362639725,0
394,-0.188827515,1.0570678709999999,-0.488006592,0.7304188009999999,-1.176516652,-0.6925752759999999,0
395,0.067047119,0.9260559079999999,-0.243637085,1.2100656029999999,1.180523157,-0.797933638,0
396,0.24885559100000001,1.031082153,-0.032287598,0.5834698079999999,1.401901245,-0.7708817720000001,0
397,0.572769165,1.071655273,0.060653687000000005,1.3800040480000002,-3.7331950660000004,-0.16909128399999998,0
398,0.44349670399999996,0.9866943359999999,0.099563599,-0.08993201699999999,-2.479894638,0.38087809100000003,0
399,0.239105225,0.9772491459999999,0.012847899999999999,-0.332835734,-0.786866605,0.214710176,0
400,0.119247437,0.9496154790000001,-0.106781006,0.09720297900000001,0.957303584,-0.0019342539999999998,0
401,0.055267334,0.962890625,-0.124053955,0.16873017,0.19765448600000002,-0.060257748,0
402,-0.037750244,1.011474609,-0.23059082,0.208090618,-2.065164804,-0.22265251,0
403,0.04566955599999999,1.0382537840000001,-0.167175293,0.16169808800000002,-1.666150808,-0.5872946379999999,0
404,0.27780151399999997,1.050247192,-0.078903198,0.178236052,-0.38976109,-0.7446640729999999,0
405,0.43687439,1.024429321,0.035079956,-0.018774221,-0.830578148,-0.37339115100000003,0
406,0.388000488,0.9632263179999999,0.060653687000000005,-0.19151909600000003,-0.46299535,-0.220885515,0
407,0.46728515600000003,1.302719116,0.160476685,-0.661270857,0.191239998,0.32058599600000004,0
408,0.454101563,1.112411499,0.292419434,-2.13622117,0.794990063,1.089461923,0
409,-0.125366211,0.9371643070000001,0.285934448,-2.808737755,1.400471449,1.7645956280000001,0
410,-0.365859985,1.628417969,-0.252075195,-2.906302452,-0.292357832,0.884898126,0
411,-0.201156616,1.3894042969999998,-0.306243896,-1.4066568609999999,-1.853134036,0.550309241,0
412,0.281570435,1.049560547,0.274795532,-0.892802894,2.2280790809999997,0.797159493,0
413,0.371749878,0.847915649,-0.117980957,-0.526257694,1.1282130479999999,1.143003464,0
414,0.343170166,0.727523804,-0.171554565,-0.373064667,1.065994143,1.510465622,0
415,-0.015045166,0.638671875,-0.21897888199999999,-0.168967977,1.4200832840000002,0.575358927,0
416,-0.22727966300000002,0.6201782229999999,-0.199783325,0.8257788420000001,0.834192336,0.40721038,0
417,-0.230133057,0.598434448,-0.101104736,1.604557157,0.47807362700000006,0.18439593899999998,0
418,-0.16491699199999998,0.692855835,-0.064163208,1.993106008,-0.058999404000000005,-0.501181066,0
419,-0.000106812,1.51663208,0.40220642100000004,1.2250207659999999,-0.800974727,-0.791836619,0
420,1.277114868,1.6435089109999999,1.645629883,-1.318493247,0.7106357809999999,0.782598615,0
421,0.522201538,0.6305999760000001,0.27780151399999997,0.975847483,0.175560907,0.085267223,0
422,-0.133651733,0.904647827,-0.09605407699999999,-0.13464462800000002,-0.306798279,0.247179702,0
423,0.017364502,1.41645813,-0.209243774,0.945481062,0.262239337,-0.880375803,0
424,1.0015258790000001,1.3407745359999999,0.876983643,-0.35254207299999996,-0.975450635,0.851077855,0
425,-0.15524292,0.534606934,-0.29377746600000004,0.29787164899999996,1.838340163,-0.137742952,0
426,-0.250305176,0.723144531,-0.322570801,0.6997469070000001,-0.298581094,-0.722189605,0
427,-0.204956055,1.2348022459999999,-0.5606536870000001,0.28481096,-1.8168047669999998,-0.31991303,0
428,-0.022964477999999997,0.9458923340000001,-0.463516235,1.2898312809999999,-0.305784672,-0.5036245579999999,0
429,0.099609375,0.8701934809999999,-0.14562988300000002,1.232299209,0.842804432,-0.6938716770000001,0
430,0.255233765,1.017105103,-0.019348145,1.173832178,-1.6079266069999998,-0.768049538,0
431,0.444000244,1.03074646,0.11189269999999998,0.661482871,-3.697759628,-0.208863735,0
432,0.471328735,0.9431457520000001,0.102645874,-0.21867933899999997,-1.8134534359999999,0.043230295,0
433,0.23593139600000002,0.978805542,-0.097763062,0.16817489300000002,1.185934067,0.035867721,0
434,0.114151001,0.9716796879999999,-0.11920166,0.70282501,1.116809607,-0.128651991,0
435,0.036010742000000005,1.002120972,-0.11299133300000001,0.382383853,-0.64915216,-0.128405645,0
436,-0.055999756,1.057693481,-0.188323975,0.31826424600000003,-2.600674868,-0.34090966,0
437,0.190429688,1.026428223,0.071502686,0.165741831,-0.9274221659999999,-0.781411648,0
438,0.41078186,1.0331573490000001,-0.015563965,-0.45612412700000005,0.47014299,-0.47437822799999996,0
439,0.354629517,0.957901001,-0.09007263199999999,-0.217653498,-0.17402319600000002,-0.268584311,0
440,0.496765137,1.287948608,0.05859375,-0.41932058299999997,-0.531006098,0.097372629,0
441,0.606658936,1.162948608,0.314468384,-1.734935999,0.41895651799999994,0.9796115759999999,0
442,-0.097839355,0.94821167,0.398544312,-2.615823746,1.646057487,1.848568797,0
443,-0.374588013,1.569351196,-0.19392395,-2.92149663,-0.092462555,0.923813283,0
444,-0.27033996600000004,1.463882446,-0.33757019,-1.740731239,-1.923970938,0.48053625200000005,0
445,0.254882813,1.025527954,0.169570923,-0.551777124,1.8487179280000001,0.729670167,0
446,0.260986328,0.828536987,-0.077575684,-0.575738132,1.2873846290000002,0.951583683,0
447,0.398254395,0.730026245,-0.172744751,-0.267259121,1.5379019980000002,1.607159138,0
448,0.046173096,0.7097320559999999,-0.214599609,-0.27368798899999996,1.61286366,0.7433289890000001,0
449,-0.22430419899999998,0.666717529,-0.186035156,0.710715413,0.975345433,0.489167839,0
450,-0.281692505,0.608566284,-0.074966431,1.5525009630000002,0.41246452899999997,0.239250407,0
451,-0.204284668,0.646102905,-0.06799316400000001,2.015757561,-0.34350997200000005,-0.48004463299999994,0
452,-0.173156738,1.293243408,0.07688903799999999,1.7062524559999999,-1.0982333420000001,-1.210786462,0
453,1.536865234,1.915008545,2.045425415,-1.8543126580000002,1.895679593,1.0014278890000001,0
454,0.644439697,0.6092681879999999,0.456970215,0.395690084,0.436551213,0.3198888,0
455,-0.061172485,0.863632202,-0.074493408,0.179548457,-0.515234828,0.477669626,0
456,-0.284561157,1.421417236,-0.44749450700000004,0.556980193,-1.577159166,-1.141762376,0
457,0.77130127,1.4213409419999998,0.846939087,0.220517188,1.1082677840000001,0.402979672,0
458,-0.079162598,0.632415771,-0.298873901,0.546507537,2.086641312,-0.24811314,0
459,-0.21800231899999997,0.70854187,-0.336853027,0.47944834799999997,-1.498885632,-0.663322031,0
460,-0.206756592,1.036148071,-0.603591919,0.39666852399999997,-3.6808726789999997,-0.144210711,0
461,-0.11553955099999999,1.059249878,-0.46626281700000005,1.186402798,-0.555118084,-0.569171846,0
462,0.083969116,0.928283691,-0.165740967,0.886093318,1.107345819,-0.6717948909999999,0
463,0.26321411100000003,1.010147095,-0.038543701,0.267991245,-0.172896415,-0.772895694,0
464,0.561721802,1.021942139,0.027206421,0.593282223,-3.860302687,-0.220805615,0
465,0.542678833,0.969177246,-6.1e-05,-0.061472949000000006,-2.1079659459999998,0.19032387399999998,0
466,0.303482056,0.943481445,-0.042663574,0.327198893,-0.18902105100000002,0.091700092,0
467,0.132492065,0.977355957,-0.029327392999999997,0.6228955389999999,0.519780874,-0.052989982000000005,0
468,0.035125732,1.021682739,-0.036132813,0.44824224700000004,-0.142986715,-0.15492966800000002,0
469,-0.089660645,1.093963623,-0.044845580999999995,0.237279922,-2.09915328,-0.49361929299999996,0
470,0.257278442,1.022476196,0.028884887999999997,-0.30964306,-0.832334518,-0.949595869,0
471,0.47337341299999997,0.9475097659999999,-0.049926757999999995,-0.17550711300000002,0.152360514,-0.495443821,0
472,0.40786743200000003,1.000946045,-0.057983398,-0.37300688,0.12652438900000001,-0.29185769,0
473,0.52545166,1.275115967,0.039123535,-0.531391203,-0.086672314,0.250961125,0
474,0.442810059,1.006027222,0.29977417,-1.8526719809999999,0.136606321,1.320794463,0
475,-0.279922485,0.9493255620000001,0.430633545,-2.527252436,0.995410502,1.829877138,0
476,-0.304122925,1.644836426,-0.256408691,-2.856727839,-0.5628796220000001,1.043025136,0
477,-0.081344604,1.399932861,-0.281799316,-1.5200064180000001,-0.400465399,0.46538233799999995,0
478,0.34642028799999997,0.975082397,0.157226563,-0.454774439,1.561715722,0.736957133,0
479,0.33059692399999996,0.80355835,-0.077545166,-0.317261845,1.700861096,1.246283174,0
480,0.340530396,0.804397583,-0.21769714399999998,-0.245495513,2.640445471,1.489527822,0
481,0.007034301999999999,0.777114868,-0.287322998,0.126867935,1.2646715640000001,0.9665170909999999,0
482,-0.24961853,0.68762207,-0.21031189,1.045050979,1.121752501,0.472441047,0
483,-0.305786133,0.6337890629999999,-0.077575684,1.634013414,0.6828347440000001,0.263726175,0
484,-0.320419312,0.7087860109999999,-0.057357788,2.18666482,-0.42445647700000005,-0.517694294,0
485,-0.19079589800000002,1.50592041,0.45524597200000005,0.758540452,-1.0067199470000001,-1.2147336009999998,0
486,1.3450927730000002,1.578720093,1.286483765,-1.011719465,2.468929052,0.779500306,0
487,0.37181091299999997,0.688720703,0.25872802699999997,0.9254252909999999,-1.042116761,0.304472536,0
488,-0.12100219699999999,0.703216553,0.01802063,-0.167335466,-1.330747485,0.328651398,0
489,-0.124893188,1.435134888,-0.395370483,0.465492845,-0.9250966909999999,-1.077032924,0
490,0.535461426,1.637176514,1.07661438,0.26219272600000004,1.349257827,-0.22881373800000002,0
491,0.138122559,0.689804077,-0.314437866,0.593155742,2.127493143,0.213362873,0
492,-0.176345825,0.561752319,-0.289382935,0.058402322,-0.873083532,-0.435949355,0
493,-0.136306763,0.9518585209999999,-0.757324219,0.616238177,-3.604656458,-0.094193079,0
494,-0.09486389199999999,1.093154907,-0.575942993,1.54698956,-0.967318714,-0.24316871199999998,0
495,0.052871704000000005,0.921234131,-0.157699585,0.940978944,0.09439734400000001,-0.526325583,0
496,0.185791016,1.0394744870000001,-0.028762817000000003,0.5367468000000001,-1.2058234209999998,-0.486247927,0
497,0.5016174320000001,1.057296753,0.09934997599999999,0.69215554,-4.60640049,0.09017916,0
498,0.441482544,0.956298828,0.025161742999999997,-0.43575760700000005,-0.9542335270000001,0.077660173,0
499,0.335861206,0.9430541990000001,-0.045013428,0.128854915,0.191821098,-0.07154689,0
500,0.17002868699999998,0.977676392,-0.066741943,-0.038257107,0.460155606,-0.11408236599999999,0
501,0.08493042,0.965454102,-0.11015319800000001,0.008414257,-0.330795765,-0.150242493,0
502,0.031890869,0.94984436,-0.165023804,0.224858671,-0.851219535,-0.377830923,0
503,0.121078491,1.038543701,-0.18070983899999998,0.17462188,-0.868704259,-0.707202971,0
504,0.27001953100000003,1.045028687,-0.14604187,0.106386892,-0.690640748,-0.658429801,0
505,0.281829834,0.960754395,-0.009811400999999999,0.377288699,-1.751627564,-0.42634919299999996,0
506,0.276748657,1.001617432,0.178070068,-0.322562605,-1.322799087,-0.250548333,0
507,0.607116699,1.3583374019999999,0.117889404,-1.2019274229999999,0.11012330699999999,0.268629581,0
508,0.571731567,1.029312134,0.22598266600000003,-2.164206028,0.52312392,1.3880035880000001,0
509,-0.154144287,0.953613281,0.362930298,-2.473309994,1.450167894,2.031006098,0
510,-0.271865845,1.617248535,-0.213775635,-2.859232426,-0.28869438199999997,0.855468571,0
511,0.035705566,1.276443481,-0.239761353,-1.5107609030000002,-0.397458673,0.401906163,0
512,0.359680176,0.977325439,0.016693115,-0.49676823600000003,2.457965136,0.605013728,0
513,0.36630249,0.8416900629999999,-0.128234863,-0.35815361100000004,1.5685675140000002,1.0687144990000002,0
514,0.372207642,0.856231689,-0.126159668,-0.430410236,1.97174716,1.700231314,0
515,-0.080200195,0.826522827,-0.302642822,0.018413095,1.584044695,0.8384975790000001,0
516,-0.261459351,0.719177246,-0.182174683,0.7977525590000001,1.160680652,0.62852174,0
517,-0.324157715,0.660858154,-0.09849548300000001,1.3787044290000001,0.563771248,0.266281486,0
518,-0.350265503,0.723770142,-0.037506104,1.8608204130000001,-0.572171926,-0.588295758,0
519,-0.305435181,1.288024902,0.409606934,0.7968937159999999,-0.425537974,-1.5178763869999998,0
520,1.382614136,1.6550292969999998,1.438201904,-1.21338892,2.9625017639999998,0.754963815,0
521,0.493148804,0.7032623290000001,0.37365722700000004,0.971357644,-0.22802810399999998,0.373473734,0
522,0.13137817400000001,0.630340576,-0.014678955,0.051939096,-2.216247797,0.522319913,0
523,-0.076080322,1.392364502,-0.468963623,0.939169884,0.117794015,-0.7101662759999999,0
524,0.21739196800000002,1.598068237,-0.072479248,0.942156613,1.779519439,-0.722650111,0
525,0.081436157,0.690765381,-0.12963867199999998,0.633067489,0.609765053,0.51327318,0
526,-0.293716431,0.638809204,-0.333129883,0.530082762,-0.582329214,-0.298561394,0
527,-0.249206543,0.87878418,-0.41647338899999997,0.12395124099999999,-1.162036538,-0.267857552,0
528,-0.120513916,1.122268677,-0.536605835,0.488376349,0.528963685,-0.7017743590000001,0
529,0.147262573,1.006454468,-0.23039245600000002,1.042617202,1.44504106,-0.54881227,0
530,0.303131104,0.950820923,-0.083435059,1.4723991159999998,-0.93483907,-0.605831861,0
531,0.34642028799999997,0.946655273,0.20503234899999997,0.944859982,-3.558266401,0.007761783,0
532,0.183868408,1.087997437,0.241317749,-0.35159373299999996,-1.689485669,-0.289008111,0
533,0.314605713,0.9176940920000001,-0.070083618,-0.274707198,1.219720364,-0.428843498,0
534,0.278930664,0.9178619379999999,-0.19212341300000002,0.604865134,1.9046499730000002,-0.209043235,0
535,0.16934204100000003,0.944839478,-0.185058594,0.86602962,0.41463500299999995,-0.211755127,0
536,0.053359985,1.054000854,-0.147888184,0.5825268029999999,-1.9250047209999999,-0.037600905,0
537,-0.09861755400000001,1.125030518,0.14189147900000001,0.296526462,-2.27406621,-0.530749381,0
538,0.332214355,0.991073608,0.039840698,-0.811541855,0.904497385,-0.617355883,0
539,0.476608276,1.098342896,-0.155487061,-0.57001394,1.530992746,-0.323861152,0
540,0.6871948240000001,1.309814453,-0.09262085,-0.40759626,-0.042252912999999996,0.284917742,0
541,0.458877563,1.095794678,0.286376953,-1.4099522830000002,-0.171931282,1.206141353,0
542,-0.38900756799999997,0.892074585,0.7756042479999999,-2.9314768310000003,2.541337729,1.291244864,0
543,-0.291793823,1.4386138919999998,-0.19313049300000001,-2.909669876,-0.008601211,0.9667085409999999,0
544,-0.020797728999999997,1.48324585,-0.43077087399999997,-1.872275233,-1.013487458,0.46721273700000004,0
545,0.37336731,1.012802124,0.056945801,-0.37992122799999994,1.011876583,0.5919874310000001,0
546,0.43217468299999995,0.8139343259999999,0.09765625,-0.570162296,1.271603465,1.352741718,0
547,0.20597839399999998,0.751251221,-0.159835815,-0.22783716,2.2354073519999997,1.3529756069999999,0
548,0.10191345199999999,0.743041992,-0.18949890100000003,-0.035030689,2.208019495,0.929327905,0
549,-0.019668579,0.7281494140000001,-0.183929443,0.485309958,1.871136189,0.874581575,0
550,-0.120223999,0.76864624,-0.046905518,1.144265771,1.743531346,0.596454322,0
551,-0.15625,0.795333862,0.13571167,1.741649508,1.376621008,-0.056479786,0
552,0.17845153800000002,1.1492004390000001,0.592895508,1.6813215019999999,1.661509395,-0.513998866,0
553,0.688842773,1.283554077,1.041900635,0.35943833,3.243296862,0.12597417800000002,0
554,0.09599304199999999,0.9332885740000001,0.35664367700000005,0.529064894,3.305588722,0.47790983299999995,0
555,-0.071563721,1.1484832759999999,0.316635132,0.15221616599999999,-1.488938689,0.9336960320000001,0
556,0.066894531,1.4156646730000002,-0.7557220459999999,0.824256897,-0.794111729,0.463133037,0
557,-0.45071411100000003,0.754852295,0.353530884,0.617711663,2.4439635280000003,-1.111535311,0
558,-0.10748291,0.934463501,-0.246536255,0.666945815,1.321280241,-1.172189832,0
559,0.30015564,0.9139556879999999,-0.23889160199999998,0.305509835,2.344371319,-0.66901058,0
560,0.418640137,1.035064697,-0.09986877400000001,1.373669386,1.197772622,-0.070354857,0
561,0.173828125,0.933685303,0.05368042,1.210241556,1.603366017,0.049029860999999994,0
562,0.057479857999999995,1.002319336,0.050338745,0.8663641209999999,1.825148702,-0.07839281099999999,0
563,0.133712769,1.029022217,-0.019119263,0.480149835,1.39433527,-0.033368342,0
564,0.239822388,0.89515686,-0.198379517,0.147946581,1.481500506,0.06677264,0
565,0.21675109899999997,0.9483032229999999,-0.38227844200000005,0.409647435,0.636078954,0.424522519,0
566,0.146392822,1.173904419,-0.21774292,0.6868817209999999,0.079589903,0.558772743,0
567,0.020828247,1.126174927,-0.11366272,0.935156465,0.902325571,0.49567258399999997,0
568,-0.310455322,1.079696655,0.191848755,2.5907888409999997,3.399867296,0.222836271,0
569,-0.099807739,0.9646301270000001,0.43508911100000003,-1.00269556,0.5367316010000001,-0.816906035,0
570,0.363601685,1.003051758,-0.117874146,-2.013024569,0.7927564979999999,-0.445996135,0
571,0.40284729,0.999771118,-0.42845153799999997,-0.258681357,0.344975501,0.244414002,0
572,0.324935913,0.918762207,-0.282485962,0.410831481,0.35799488399999996,0.090227634,0
573,0.199188232,0.991577148,-0.251556396,0.437753379,0.487020522,0.25978684399999996,0
574,0.058563232,1.020614624,-0.16355896,0.693337202,0.855483234,0.15251258,0
575,-0.106613159,1.015991211,0.071716309,0.5798016189999999,1.7252324819999998,-0.242970839,0
576,0.174987793,0.9812164309999999,0.013458251999999999,-0.8003997209999999,0.57011193,-0.425081521,0
577,0.266098022,0.987442017,-0.226821899,-0.72690475,-0.019549999,-0.20771297800000002,0
578,0.25735473600000003,0.9381866459999999,-0.289398193,-0.262967706,0.219017565,-0.105585814,0
579,0.164505005,0.973190308,-0.213012695,0.153108865,0.35809075799999995,-0.064784057,0
580,0.045059204000000005,0.972503662,-0.005630493,0.107343502,0.5035560729999999,-0.21041342600000001,0
581,0.09359741199999999,0.981750488,0.056060791,-0.673535526,0.40752062200000005,-0.39203462,0
582,0.181259155,0.9673767090000001,-0.15165710400000001,-0.872772992,0.127134785,-0.348709255,0
583,0.24671936,0.956741333,-0.2134552,-0.58584404,0.30830884,-0.211340472,0
584,0.19538879399999998,0.9101409909999999,-0.112548828,-0.096447445,0.7140829559999999,-0.058216434000000004,0
585,0.061904907,0.9673767090000001,0.055114746,0.329259932,0.913644552,-0.16059686199999998,0
586,-0.037567139,1.111526489,0.492401123,-0.084924474,1.4944916959999999,-0.380845338,0
587,0.057632446,1.220779419,0.6631011960000001,-1.248454809,1.266503215,-0.510578334,0
588,0.266342163,1.15423584,0.49600219700000003,-1.3534927369999998,0.656960011,-0.272767335,0
589,0.228271484,1.015899658,0.292633057,-1.102750063,1.08932054,0.256504744,0
590,0.355728149,0.9001159670000001,0.251678467,-1.056538343,0.44572153700000006,0.8097186679999999,0
591,0.152893066,0.844970703,-0.35337829600000004,-0.298114508,-0.827286243,1.192699671,0
592,-0.029800415,0.875854492,-0.582962036,1.415580869,3.803186655,1.191540122,0
593,0.7686309809999999,0.8903503420000001,0.768798828,-0.7223443390000001,-0.8894371990000001,1.972286224,0
594,0.154083252,1.108291626,0.26861572300000003,0.714221179,2.7705545430000003,1.6277107,0
595,-0.023513793999999998,1.054382324,0.109893799,0.8224294190000001,1.3429061169999998,1.198357463,0
596,-0.032394409,0.9274291990000001,0.034973145,0.50167352,0.926126242,0.9288650159999999,0
597,0.123031616,0.9218292240000001,0.062973022,0.873509645,1.6442918780000002,0.663593709,0
598,0.161102295,0.86882019,0.106292725,0.908186913,2.025107384,0.429743648,0
599,0.091903687,0.884475708,0.15020752,1.009302616,2.006534815,0.267631441,0
600,-0.019515991,0.903182983,0.141433716,1.027393222,1.583762765,-0.05166639,0
601,0.062225342,0.9502716059999999,0.264389038,0.9442482590000001,1.0984159709999999,-0.332675964,0
602,0.40490722700000004,1.04397583,0.563980103,0.217427924,0.867084205,-0.173852757,0
603,0.511672974,0.975952148,0.328491211,0.301220566,0.98129791,0.054119162,0
604,0.20530700699999999,0.817718506,0.017303467,0.449596703,0.8215793370000001,-0.10862980800000001,0
605,-0.14579772900000001,1.486526489,-0.17176818800000002,0.821068525,-0.414022744,-0.704610348,0
606,0.119766235,1.141311646,0.78036499,-0.259135962,-0.272970557,-0.148298919,0
607,0.38397216799999995,0.966796875,-0.32244873,0.973122776,1.217903256,-0.288957775,0
608,0.033111572,0.6712951659999999,-0.146743774,0.084853105,1.4660775659999998,-0.32952997100000003,0
609,-0.04385376,0.991333008,-0.220703125,0.364158779,0.298097461,-0.418682486,0
610,0.057800292999999996,0.956039429,-0.136795044,0.75303328,0.21449285699999998,-0.512466729,0
611,0.182525635,0.9713897709999999,-0.173355103,0.6818033459999999,2.0731773380000003,-0.482839614,0
612,0.23397827100000002,1.009246826,-0.190292358,0.426602185,1.4091142419999998,-0.21153621399999997,0
613,0.16255188,0.96031189,-0.18737793,0.539134026,-0.508285046,0.167050779,0
614,0.106079102,1.003570557,-0.047027587999999995,0.39348682799999996,-1.9415211680000002,0.166289106,0
615,0.149459839,1.050765991,0.026473998999999998,0.216605276,-2.532516718,0.09237387,0
616,0.21148681600000002,0.9427948,0.028091431,-0.096751578,-0.513466537,-0.021424865,0
617,0.16827392600000002,0.950012207,-0.105422974,-0.040067524,1.6199446919999998,-0.066333748,0
618,0.201339722,0.953903198,-0.179962158,0.075157337,1.474508643,-0.007465373000000001,0
619,0.167709351,0.951019287,-0.23968505899999998,0.39116722299999995,-0.09415153400000001,0.058324292,0
620,0.118408203,0.9694976809999999,-0.24586486800000001,0.600711644,-1.6477230790000001,0.015142468000000001,0
621,0.069839478,0.975463867,-0.154602051,0.611689985,-1.320710063,-0.174148634,0
622,0.121154785,1.053710938,0.049728394,1.058048368,-1.124507546,-0.435244411,0
623,0.268417358,1.038284302,0.14956665,-0.21461083,-0.146981463,-0.41985026,0
624,0.167388916,1.060714722,-0.124328613,-0.41289010600000003,0.581516922,-0.432065934,0
625,0.19367981,1.062057495,-0.200820923,-0.11767896300000001,0.267941713,-0.574940264,0
626,0.303344727,0.973846436,-0.142974854,0.138270527,-0.6956261990000001,-0.56944561,0
627,0.47326660200000004,1.151107788,0.004211426,-0.108847119,-0.681111693,-0.327372551,0
628,0.527694702,1.147140503,0.102005005,-0.648829103,0.299068451,0.278190345,0
629,0.232086182,0.910247803,0.265457153,-1.456928372,1.252615094,0.996072292,0
630,-0.232513428,0.930786133,0.36665344200000005,-2.386321306,1.8914403919999998,1.12612462,0
631,-0.211883545,1.4985961909999999,-0.09866333,-2.747797012,-0.132587343,0.670515239,0
632,0.031845093,1.316299438,-0.373001099,-1.810230732,-0.956899583,0.467215657,0
633,0.139450073,1.188583374,-0.194366455,-0.658168018,0.755610406,0.648308754,0
634,0.45552063,0.8775329590000001,0.1980896,-0.129093274,0.039190012999999996,1.372844577,0
635,0.364105225,0.772247314,-0.038925171,-0.36085379100000003,1.7241754530000002,1.855754495,0
636,-0.045227051,0.769104004,-0.20968627899999998,-0.342492908,2.195746899,0.592131734,0
637,-0.284545898,0.7217559809999999,-0.136917114,0.282642871,1.07182622,0.33273294600000003,0
638,-0.379165649,0.598434448,-0.03364563,0.958091915,-0.047692422000000005,0.337731957,0
639,-0.22756958,0.659698486,-0.0040588379999999995,1.266767502,-0.604129314,-0.45205506700000003,0
640,-0.078765869,1.097320557,0.23738098100000002,1.11167562,0.071657144,-1.010432124,0
641,1.0007629390000001,1.6553192140000001,1.453460693,-0.866691709,2.37611866,0.187884688,0
642,0.767578125,0.976272583,0.7777404790000001,0.307235032,-0.883417428,0.399832875,0
643,0.17680358899999998,0.860900879,0.163497925,0.34108009899999997,-0.5980508920000001,0.447376162,0
644,-0.1927948,0.8130950929999999,-0.14733886699999998,0.404037744,-0.22645869899999999,-0.382956177,0
645,0.057052612,1.31918335,-0.19004821800000002,1.114125729,0.278647602,-0.83547014,0
646,0.561416626,1.119140625,0.649642944,0.057415888,-1.765873671,0.444768667,0
647,-0.149017334,0.656448364,-0.22644043,0.35367178899999996,0.615364373,-0.369664609,0
648,-0.124359131,0.806793213,-0.302505493,0.151796982,0.425478339,-0.548899889,0
649,-0.01550293,1.1597442629999999,-0.470031738,0.326307535,0.666393757,-0.5873769520000001,0
650,0.181625366,0.954116821,-0.34202575700000004,1.058244586,0.925300419,-0.29185316,0
651,0.185058594,0.8951873779999999,-0.110748291,1.144093752,-0.8747357729999999,-0.4415268,0
652,0.21661377,0.957260132,0.06237793,0.634765744,-3.6376085280000003,-0.262717098,0
653,0.190460205,0.9983215329999999,-0.011993408,-0.081380613,-2.03295207,-0.269116163,0
654,0.272186279,1.002090454,-0.07127380400000001,0.750362158,0.06887626599999999,-0.547387183,0
655,0.322479248,0.95123291,-0.031097412,0.831570446,1.012023807,-0.20096346699999998,0
656,0.186462402,1.007919312,-0.024597168,0.67560643,-0.32240068899999996,-0.059033759000000005,0
657,0.096359253,1.095245361,-0.041534424,0.46572828299999997,-1.62465477,-0.064400829,0
658,-0.032165527,1.174072266,0.015563965,0.167400971,-1.9442726369999999,-0.41846624,0
659,0.27720642100000004,1.0298461909999999,0.04006958,-0.48195198200000006,-0.309623092,-0.659821033,0
660,0.41751098600000003,1.026519775,-0.076309204,-0.469794661,0.320496261,-0.45509934399999996,0
661,0.555633545,1.173339844,-0.066238403,-0.507838964,0.35724601100000003,-0.076396771,0
662,0.5931549070000001,1.071884155,0.1665802,-1.183388352,-0.397394776,0.677888215,0
663,0.154922485,0.813522339,0.421203613,-2.279606581,1.446869016,1.785627604,0
664,-0.23522949199999998,1.375335693,0.024719237999999998,-2.665295124,2.393309832,1.248251319,0
665,-0.25743103,1.733978271,-0.469329834,-2.97170043,-2.476072788,0.52155453,0
666,0.066238403,1.062194824,-0.145690918,-0.551971555,-0.251270056,0.676762223,0
667,0.252288818,0.8711395259999999,0.19395446800000002,-0.202307835,1.9911025759999998,0.9437949659999999,0
668,0.49961853,0.7803497309999999,-0.181274414,-0.152986079,1.7728530169999999,1.78712678,0
669,0.251022339,0.7533874509999999,-0.203140259,-0.330817074,2.3493864540000002,1.252050042,0
670,-0.181259155,0.751525879,-0.23202514600000002,0.394747853,1.268302441,0.42169717,0
671,-0.390655518,0.622619629,-0.08578491199999999,1.179956675,1.091312766,0.39362266700000004,0
672,-0.387695313,0.613677979,-0.051834106,1.927656412,-0.485942483,-0.274876028,0
673,-0.37109375,0.989501953,-0.008804321,1.858594298,-1.006306529,-1.236033201,0
674,1.020751953,1.9414367680000002,2.314941406,-2.203948259,2.928910732,0.16552877400000002,0
675,1.122711182,1.024230957,0.840606689,0.274612665,0.001327852,1.012957573,0
676,0.2109375,0.694641113,0.082595825,0.157866865,-1.1422731879999999,0.416977525,0
677,-0.306549072,0.6549530029999999,-0.300888062,0.167354912,-1.722830057,-0.286927909,0
678,-0.11831665,1.4007415769999998,-0.37252807600000004,0.974727094,-0.573731959,-1.7997049090000001,0
679,0.575759888,1.489746094,0.43241882299999995,1.017955184,2.488576412,-0.0016090820000000002,0
680,-0.0415802,0.476577759,-0.333297729,0.24736745699999999,1.3477531669999998,-0.196934909,0
681,-0.069442749,0.660217285,-0.553283691,0.008509865,-0.85735172,-0.211589739,0
682,-0.082855225,1.204940796,-0.8441162109999999,1.203309059,-3.4551253319999997,-0.247031361,0
683,0.04914856,0.890457153,-0.30755615199999997,1.359433413,-0.5124387739999999,-0.38922712200000004,0
684,0.128112793,0.893753052,-0.072463989,0.711511135,-0.653471291,-0.663855493,0
685,0.391891479,1.271850586,-0.09046936,1.7268838880000001,-4.462321758,-0.792959929,0
686,0.551834106,1.015350342,0.16217041,0.599137723,-3.40891099,-0.09081991800000001,0
687,0.455154419,0.8431549070000001,0.216629028,-0.17306979,0.002496447,-0.135845184,0
688,0.15447998,0.987457275,0.02281189,-0.143750504,1.922332525,-0.09805838800000001,0
689,0.13861084,0.9963378909999999,-0.139923096,0.045752842,1.8946335319999998,-0.20518857199999999,0
690,-0.04083252,1.187271118,-0.225280762,0.273685873,-1.122001529,-0.462883234,0
691,0.13417053199999998,1.073242188,-0.170135498,-0.049081527,-2.092596054,-0.561719775,0
692,0.515914917,1.034591675,0.10583496099999999,0.501142204,-0.667157531,-0.512701094,0
693,0.626464844,1.255233765,0.14659118699999998,-1.035462618,1.126466513,0.023416907999999997,0
694,0.545608521,1.0583343509999998,0.13806152300000002,-1.6081141230000002,0.6770154829999999,0.80173105,0
695,0.121200562,0.82951355,0.27671814,-2.1240928169999997,1.70179987,1.6942559480000001,0
696,-0.33639526399999997,1.44052124,0.005935669,-2.464399576,1.180207491,1.113063335,0
697,-0.301391602,1.6139221190000002,-0.44039917,-2.548461437,-2.2528800959999997,0.59462291,0
698,0.13067627,1.0526885990000001,-0.131118774,-0.645720661,0.62229234,0.699576735,0
699,0.262786865,0.8955688479999999,0.09095764199999999,-0.24805481699999998,1.7197575569999999,0.7980412240000001,0
700,0.5728607179999999,0.7443389890000001,-0.144454956,-0.07971587,1.6231913569999998,1.948398232,0
701,0.163650513,0.693267822,-0.21379089399999998,-0.33604511600000003,2.338934422,0.935227334,0
702,-0.21371460000000003,0.711486816,-0.30116272,0.596131027,1.082609653,0.578597307,0
703,-0.41197204600000004,0.638092041,-0.17098999,1.296090484,0.799577117,0.477963895,0
704,-0.43182373,0.618133545,-0.109359741,2.073556185,-0.368717849,-0.352736473,0
705,-0.454162598,1.07699585,-0.07942199700000001,2.205291271,-1.502909184,-1.6146715880000002,0
706,1.597061157,2.2647705080000002,2.7719421389999996,-2.377199173,3.9037652019999998,0.637997806,0
707,0.839614868,0.839675903,0.603500366,0.07060679,-0.927831709,0.8983971479999999,0
708,-0.06666564900000001,0.779464722,-0.128143311,-0.217652172,-1.811031342,-0.021933527999999997,0
709,-0.286712646,1.635467529,-0.34313964799999996,0.10387340199999999,-1.834716082,-0.865100205,0
710,-0.044784545999999995,0.636672974,-0.233047485,0.6702017779999999,2.353314161,0.034369158999999996,0
711,-0.070297241,0.624435425,-0.264205933,0.824329555,1.932298899,-1.1220395570000001,0
712,0.062240601,1.1354370120000001,-0.34341430700000003,0.41161763700000004,-0.523172915,-0.965488315,0
713,9.159999999999999e-05,1.0836944579999999,-0.5374450679999999,1.062002897,-2.505962133,-0.109011173,0
714,0.107376099,0.780471802,-0.2603302,1.321155906,-1.340126038,-0.38449043,0
715,0.18367004399999998,0.9274291990000001,-0.090530396,0.6222363710000001,-1.039940715,-0.666327417,0
716,0.359451294,1.116027832,-0.069168091,0.60141474,-1.59812963,-0.66491437,0
717,0.5169830320000001,0.98274231,0.069763184,1.161683321,-3.604522943,-0.369050741,0
718,0.358169556,0.97845459,0.16444397,0.236249283,-1.440461159,-0.029995182999999998,0
719,0.126739502,0.982543945,0.063613892,0.24590884100000002,0.875059843,-0.154894501,0
720,0.081207275,1.0363006590000001,-0.000564575,0.425411224,1.504534483,-0.39671993299999997,0
721,0.067687988,1.130462646,-0.090408325,0.1574357,-0.38199982,-0.42270463700000005,0
722,0.174499512,0.977645874,-0.067626953,-0.433553576,-1.41286552,-0.58814317,0
723,0.42825317399999996,1.009368896,-0.065628052,-0.10966444800000001,0.11440140800000001,-0.532641292,0
724,0.624694824,1.251876831,0.055557250999999995,-0.42954579,0.41992136799999996,0.160953194,0
725,0.535949707,1.0749816890000001,0.31225585899999997,-1.770397067,-0.061731275,1.104676008,0
726,-0.034484863,1.011032104,0.45774841299999997,-2.626979828,1.7104319330000002,2.206008196,0
727,-0.291000366,1.650634766,-0.148025513,-3.0380849839999997,-0.185967207,1.7486925130000002,0
728,-0.431518555,1.604476929,-0.344482422,-2.03301239,-2.24154973,0.477576166,0
729,0.144943237,0.941894531,-0.015716553,-0.181503475,2.329790115,0.882613897,0
730,0.222808838,0.854980469,0.057571410999999996,-0.630004287,0.8949800729999999,0.979784667,0
731,0.421890259,0.742828369,-0.21640014600000002,-0.10190852,1.82771945,1.5499730109999998,0
732,0.06980896,0.66619873,-0.241943359,-0.393492699,1.932021379,0.709013879,0
733,-0.223937988,0.582763672,-0.256576538,0.548193038,1.075504541,0.22710239899999998,0
734,-0.350357056,0.5647888179999999,-0.125335693,1.4870734209999998,0.448435307,0.17349349,0
735,-0.33531189,0.601379395,-0.10546875,2.476333618,-0.301492989,-0.44043836,0
736,-0.149307251,1.59664917,0.522369385,1.2978543040000001,-0.75728637,-1.093977571,0
737,1.7230072019999998,1.925872803,1.521469116,-0.87743783,-0.145630971,1.559273839,0
738,0.412780762,0.275650024,0.260787964,0.389187694,-0.023149528,-0.005352155,0
739,-0.398635864,1.5543365480000002,-0.379119873,0.504206955,-2.252787352,-0.60581857,0
740,0.013061523,1.468185425,-0.233093262,0.09575235800000001,-0.6489226220000001,-0.27874535300000003,0
741,-0.089096069,0.622253418,-0.19972229,0.329752058,1.470914721,-0.198680341,0
742,-0.09072876,0.666442871,-0.33737182600000004,0.70238024,1.144560099,-1.072256804,0
743,0.001083374,1.12902832,-0.533233643,0.27859222899999997,-1.2437798979999999,-0.468205273,0
744,0.046661377000000004,1.022689819,-0.527267456,1.164019227,-2.061986446,-0.273372412,0
745,0.10531616199999999,0.7723999020000001,-0.18984985399999998,1.037097812,-0.576305926,-0.579107821,0
746,0.207809448,0.995010376,-0.06036377,0.47778466299999994,-0.880405068,-0.74048394,0
747,0.428573608,1.159988403,-0.10647583,1.4514966009999999,-3.8280777930000003,-0.8215202090000001,0
748,0.507904053,0.983093262,0.106262207,0.858996451,-3.2859785560000003,-0.390813291,0
749,0.354354858,0.939605713,0.223983765,0.16289331,-0.747777283,-0.023778833,0
750,0.10450744599999999,1.001419067,0.089660645,-0.019099392,1.469450474,-0.28028813,0
751,0.13508606,1.048492432,-0.064865112,-0.020120713999999998,1.3815741540000002,-0.170287043,0
752,0.14637756300000002,1.100402832,-0.10484314,-0.516671062,-0.27402117800000003,-0.38970381,0
753,0.23284912100000002,0.967437744,-0.25830078100000003,-0.449892312,-1.053898573,-0.264074266,0
754,0.254974365,1.0027160640000001,-0.18319702100000002,0.47172331799999995,-0.180119172,-0.316286325,0
755,0.40510559100000004,1.244140625,0.221115112,0.11709626,-1.6519851680000002,0.105252653,0
756,0.546905518,1.131072998,0.48782348600000003,-2.207001448,0.347504973,0.873538136,0
757,0.086685181,0.8785705570000001,0.38101196299999995,-3.0629422660000003,1.9690475459999999,2.093162298,0
758,-0.206542969,1.48916626,-0.162948608,-2.887857199,-0.561724305,1.6718376869999998,0
759,-0.319763184,1.664474487,-0.361251831,-1.551178098,-2.069612741,0.648622453,0
760,0.21697998,1.003311157,0.254135132,-0.270756125,1.911549926,0.738610923,0
761,0.25730896,0.813217163,-0.022735596,-0.448779672,1.426801085,0.8616111870000001,0
762,0.22895813,0.71925354,-0.194122314,0.104397781,2.274852514,1.215319157,0
763,0.108795166,0.7615203859999999,-0.240737915,-0.10126004400000001,1.767495036,0.6982811090000001,0
764,-0.180252075,0.68119812,-0.211196899,0.71850276,0.887885928,0.377330512,0
765,-0.278686523,0.64201355,-0.07081604,1.597596765,0.59500289,0.420088887,0
766,-0.243850708,0.654281616,-0.056976318,2.1892487999999997,-0.276073664,-0.21419005100000002,0
767,-0.233108521,1.418533325,0.27255249,1.349749207,-0.45163855,-0.908551753,0
768,1.255142212,1.738601685,1.74307251,-1.8766806130000002,1.6881139280000002,0.61522454,0
769,0.45072937,0.5837249760000001,0.376678467,0.6138844489999999,-0.234078005,0.027514715,0
770,0.01109314,1.055725098,0.062652588,0.446607053,-0.7141546009999999,0.41550079,0
771,0.062179565,0.60949707,-0.004684448,-0.004273841,-0.20799394,-0.280531794,0
772,-0.00479126,1.440811157,-0.191726685,1.230118036,-1.267495275,-1.070381165,0
773,0.772964478,1.55607605,0.418563843,0.298878044,1.315431118,0.418391645,0
774,-0.047195435,0.437149048,-0.365905762,0.34351635,1.584051132,0.10173302099999999,0
775,-0.174179077,0.606277466,-0.41027832,-0.10428805599999999,-1.789660215,-0.478564173,0
776,-0.137893677,1.221176147,-0.6812438959999999,0.9853972790000001,-2.634669304,-0.24538712199999999,0
777,0.100799561,1.079986572,-0.263595581,0.996059239,0.099058405,-0.452982128,0
778,0.204605103,0.8627624509999999,-0.072494507,0.609613538,0.07640955599999999,-0.649010777,0
779,0.573471069,1.086425781,0.110748291,1.1495229009999999,-5.536191463,-0.442068756,0
780,0.46788024899999997,0.9087677,0.073883057,-0.174387515,-1.8921293019999998,0.004837632,0
781,0.362579346,0.913070679,0.012527466000000001,0.492274672,0.8578923340000001,0.070676833,0
782,0.129974365,1.015594482,0.012771606000000001,-0.069682673,1.21784544,-0.081833348,0
783,0.115188599,0.921234131,-0.136306763,-0.22785313399999998,1.1791808609999999,-0.036905821,0
784,0.04788208,0.9117736820000001,-0.293289185,0.519042611,0.305360436,-0.133549541,0
785,-0.021636963,1.0336303709999999,-0.347930908,0.578546703,-1.92350328,-0.279730171,0
786,0.08480835,1.079742432,-0.22869873,-0.0016468989999999998,-0.848471105,-0.51016897,0
787,0.26701355,1.102600098,-0.132965088,0.8421351909999999,-1.062201023,-0.82661593,0
788,0.436859131,0.992950439,0.167098999,-0.021724204,-1.27940309,-0.35744041200000004,0
789,0.25677490199999997,1.1547088620000001,-0.007843018,-0.35771474200000003,0.46725401299999997,-0.048626393,0
790,0.230484009,1.191162109,-0.015045166,-0.552373946,0.731886446,0.184509918,0
791,0.20904541,1.0165557859999999,0.074676514,-1.4359854459999999,-0.6297537089999999,0.7511059640000001,0
792,-0.117980957,0.876220703,0.352615356,-1.767026067,-0.170322731,1.137084603,0
793,-0.23739624,1.1488647459999999,0.190139771,-2.8758187289999997,1.629440665,0.7162845729999999,0
794,0.03717041,1.4714355469999998,-0.424377441,-3.029936314,-1.381893754,0.656761885,0
795,0.026153564,1.203323364,-0.304626465,-1.2932816740000002,-2.0120906830000003,0.526666999,0
796,0.371841431,0.880630493,0.374923706,-0.5139911770000001,0.426560104,0.807231545,0
797,0.11166381800000001,0.8020782470000001,-0.087905884,-0.460911155,0.9973162409999999,0.709851205,0
798,0.138244629,0.869689941,-0.222122192,0.019140139,0.76176846,1.015656948,0
799,0.076705933,0.7808837890000001,-0.17640686,0.202611968,0.70351845,0.7659711840000001,0
800,-0.116378784,0.8083190920000001,0.019851685,0.69401896,0.718220711,0.412977725,0
801,-0.08421325699999999,0.827056885,0.226470947,1.3019329309999998,0.04165104,0.150531724,0
802,0.2240448,1.066925049,0.557327271,1.0579777959999999,-0.502346754,-0.148270696,0
803,0.449432373,0.977798462,0.67199707,0.23967464300000002,-1.1635191440000001,0.121878505,0
804,0.038116455,0.820663452,0.001876831,0.12453474099999999,-0.454420239,-0.007926365999999999,0
805,-0.0053253169999999996,0.8066253659999999,-0.129608154,0.861088932,-1.202978611,-0.556081891,0
806,0.60597229,1.8851165769999998,0.279525757,0.34654358,-2.121905804,-0.28135097,0
807,0.11215209999999999,0.769699097,-0.044281006,0.346727312,-0.31918466100000004,0.10334955900000001,0
808,-0.242446899,0.649536133,-0.167709351,0.43768999,-1.051700115,-0.16609709,0
809,-0.156326294,1.1838836670000001,-0.375350952,-0.22632421600000002,-0.795719504,-0.682251513,0
810,0.15423584,1.10093689,-0.310333252,0.00857165,0.15792837699999998,-0.541739404,0
811,0.497833252,1.0016937259999998,-0.242172241,0.888984442,-1.86589396,-0.8664131159999999,0
812,0.558609009,0.874557495,-0.060775757,0.505297244,-2.131868839,-0.309643328,0
813,0.191757202,0.8581695559999999,-0.0041656490000000004,-0.601323128,-2.280848503,0.00037870199999999997,0
814,0.237609863,1.01663208,-0.193496704,0.07131093,-1.5031405690000001,-0.194889322,0
815,0.41061401399999997,1.0036163329999999,-0.042282104,0.499269456,-0.9771957990000001,-0.20680829899999997,0
816,0.21914672899999998,0.9661102290000001,0.070343018,-0.189608812,-1.4415693280000001,0.248305678,0
817,0.09338378900000001,0.9990844729999999,-0.011520386,-0.249064952,-1.306560993,0.194146037,0
818,0.058807372999999996,0.966033936,-0.03213501,-0.23126198399999998,-0.48604339399999996,0.008178035,0
819,0.070373535,0.935394287,-0.071624756,-0.38575729700000005,0.29211601600000003,-0.315818667,0
820,0.171051025,0.97013855,-0.169799805,-0.129951611,0.692379773,-0.562616467,0
821,0.283370972,0.96736145,-0.188064575,0.30084505699999997,0.5703724029999999,-0.7830537559999999,0
822,0.39134216299999997,0.9573974609999999,-0.141494751,0.282492667,0.507131398,-0.852108717,0
823,0.39576721200000003,0.972427368,-0.106109619,0.155022338,0.2644732,-0.523538828,0
824,0.265060425,1.059371948,-0.088607788,-0.09074375,-0.144547597,-0.37384817,0
825,0.20805358899999998,1.126052856,-0.126205444,-0.08902601199999999,-0.387545586,-0.387099236,0
826,0.17376709,1.0446319579999999,-0.059265137,0.193802223,-1.13573277,-0.440979004,0
827,0.336990356,1.26423645,0.106201172,-0.129223764,-0.910455942,-0.094845816,0
828,0.32270813,1.059432983,0.288711548,-1.016315818,0.701124847,-0.048237037,0
829,0.13911438,0.8760528559999999,0.273452759,-1.817724586,2.265907764,0.41167569200000004,0
830,-0.000595093,0.8724517820000001,0.151641846,-2.008021116,1.74979353,0.840235829,0
831,0.083816528,1.2722473140000001,-0.060562134000000004,-1.996682405,-0.966641188,0.6743238570000001,0
832,0.19393920899999997,1.1490783690000002,-0.379119873,-0.8429543970000001,0.5958316920000001,0.92123723,0
833,0.15635681199999998,1.102310181,-0.220077515,0.298570991,0.387660921,1.033724666,0
834,0.44673156700000005,0.8228454590000001,0.490264893,-0.098349206,-0.229109615,1.643088579,0
835,0.18301391600000003,0.930877686,-0.022033691,0.122875854,2.8063259119999997,1.348054886,0
836,0.037353516,0.962661743,-0.153274536,-0.115372129,1.827309847,1.217883825,0
837,-0.06918335,1.003707886,0.011398315,-0.052544169,2.051055431,1.037834167,0
838,0.042541504,0.922439575,-0.023468017999999997,0.299079657,1.643308878,0.875799716,0
839,-0.088287354,0.8120422359999999,-0.082901001,0.7362439040000001,0.7532679440000001,0.7159098979999999,0
840,-0.258071899,0.78956604,-0.027420043999999998,1.2139401440000002,0.6350960139999999,0.202656165,0
841,-0.194229126,0.7677764890000001,0.104736328,1.467691541,0.7317301629999999,-0.5389273760000001,0
842,0.09135437,1.187713623,0.40596008299999997,1.140960813,1.2451844220000001,-0.958092451,0
843,0.8502044679999999,1.275314331,1.200439453,0.187893733,0.9402127859999999,-0.070123427,0
844,1.025558472,1.028060913,0.45373535200000004,0.171701446,0.713686168,0.418168485,0
845,0.401290894,0.6087188720000001,0.06739807099999999,-0.343957633,0.290522903,0.464476585,0
846,-0.20980835,1.224853516,-0.5282592770000001,0.741945744,0.181968465,-0.59103483,0
847,-0.065887451,1.47366333,-0.11746215800000001,0.609981835,0.39507967200000005,-0.7428948879999999,0
848,0.012954712,0.7740173340000001,-0.053619385,0.608447075,-0.481571168,0.28538647300000003,0
849,-0.199874878,0.667480469,-0.294067383,0.22485175699999999,0.831148326,-0.748635352,0
850,-0.147766113,1.118743896,-0.549835205,0.159323871,1.00031209,-0.6188176870000001,0
851,0.075286865,1.04788208,-0.539611816,0.964130342,1.038651943,-0.40695366299999997,0
852,0.13528442400000001,0.84979248,-0.172561646,1.298520088,0.553071737,-0.42816066700000005,0
853,0.20024108899999998,1.0025177,-0.034332275,1.530326962,-2.6817457680000003,-0.313804537,0
854,0.247665405,1.031784058,0.157928467,0.67954576,-3.6085031030000003,-0.422080666,0
855,0.422546387,0.9618377690000001,0.141021729,0.017887387,-0.897206962,-0.358652443,0
856,0.213973999,0.942138672,-0.064666748,0.378100961,2.142180443,-0.224117249,0
857,0.10171508800000001,0.9919128420000001,-0.077041626,0.660140932,1.4096686840000001,-0.27329066399999996,0
858,0.06568908700000001,1.064071655,-0.095626831,0.246493131,-0.939145088,-0.224846154,0
859,-0.069152832,1.169799805,-0.129180908,0.17301333,-2.621355295,-0.45730283899999996,0
860,0.18363952600000003,0.973449707,0.02003479,-0.08635965699999999,-0.180709332,-0.7829786540000001,0
861,0.481994629,1.034576416,-0.012374878,-0.22040480399999998,0.602035284,-0.579121411,0
862,0.679946899,1.33164978,-0.000411987,-0.589509606,0.353694677,0.15885782199999998,0
863,0.687088013,1.10345459,0.234375,-1.6212555169999998,0.008378038,1.054103971,0
864,0.025283813,1.00932312,0.415893555,-2.2221879959999997,2.031373262,2.130633354,0
865,-0.261383057,1.632400513,-0.152893066,-2.643606901,1.420610309,1.184250236,0
866,-0.343963623,1.41166687,-0.438537598,-2.149104595,-1.97316134,0.252177924,0
867,0.13217163099999998,0.9669036870000001,-0.018569946,-0.071719728,1.477035165,0.7987363340000001,0
868,0.115966797,0.881942749,0.052047729,-0.587771654,1.381586432,0.767522514,0
869,0.38264465299999995,0.7557525629999999,-0.168334961,-0.520136654,1.766766667,1.5399873259999999,0
870,0.07873535200000001,0.733306885,-0.169036865,-0.427831501,1.3501847980000001,0.913233638,0
871,-0.21105957,0.6949462890000001,-0.157455444,0.38628724200000003,0.9410175679999999,0.42212408799999995,0
872,-0.345581055,0.582168579,-0.08705139199999999,1.156885982,0.511726379,0.22077445699999998,0
873,-0.354354858,0.688049316,-0.083435059,1.862883806,-0.424084157,-0.6760700940000001,0
874,-0.225524902,1.333465576,0.43663024899999997,1.290939093,-0.604059815,-1.3448617459999999,0
875,1.5167846680000001,1.8484649659999999,1.698898315,-0.671072125,1.60988915,0.798790634,0
876,0.509628296,0.678924561,0.45951843299999995,0.45915082100000004,0.252953708,0.21349577600000003,0
877,-0.328216553,1.429779053,-0.22038269,-0.466938436,-2.7090384960000002,-0.115171328,0
878,0.004608154000000001,1.3088531490000002,-0.418670654,0.229211345,-0.444873601,0.24984632399999998,0
879,-0.0987854,0.481170654,-0.13159179699999998,0.45368465799999996,1.6335675719999998,-0.290182829,0
880,-0.08422851599999999,0.744522095,-0.319351196,0.708489776,0.728916228,-0.9427323940000001,0
881,0.048538208,1.211624146,-0.43040466299999997,0.424286038,-2.001987457,-0.166070461,0
882,0.000976563,1.003692627,-0.335952759,1.054288983,-1.520222664,-0.34581065200000005,0
883,0.09918212900000001,0.805877686,-0.145904541,0.937360525,-0.192166239,-0.568165421,0
884,0.21725463899999997,0.9900970459999999,-0.058624268,0.610242069,-0.501685739,-0.655450523,0
885,0.41154480000000004,1.0059051509999999,0.044219971,0.772542834,-2.294503927,-0.55788964,0
886,0.40774536100000003,0.965408325,0.033355712999999995,0.382389456,-1.52296114,-0.398542315,0
887,0.346252441,0.9783172609999999,-0.045227051,0.6855168340000001,0.5854679939999999,-0.139999717,0
888,0.104827881,0.945663452,-0.051849365,1.14503777,0.5770702360000001,-0.14055258,0
889,-0.003753662,1.068664551,0.069046021,0.6496025320000001,-1.037662148,-0.30180034,0
890,-0.041641235,1.161056519,0.10324096699999999,-0.33106741300000003,-1.5073227880000002,-0.587300003,0
891,0.29573059100000004,1.020111084,-0.112762451,-0.62975955,0.306218773,-0.790221691,0
892,0.431762695,1.02923584,-0.164733887,0.13837544599999999,0.556453645,-0.442197919,0
893,0.28038024899999997,0.997436523,-0.003204346,-0.053464822,-0.913927615,-0.140261769,0
894,0.547424316,1.281311035,0.24368286100000003,-1.1235407590000002,-0.61116749,0.276366085,0
895,0.50012207,0.85798645,0.326431274,-2.449372292,1.272380114,1.8062421080000002,0
896,-0.257583618,1.2144165040000001,0.166381836,-2.823165655,1.2701853509999999,2.103245497,0
897,-0.290283203,1.72857666,-0.397842407,-2.622671127,-1.621579647,1.113301992,0
898,-0.072860718,1.258392334,-0.083831787,-0.984933913,0.29420259600000004,0.831292927,0
899,0.260192871,0.9181823729999999,0.205612183,-0.338171124,2.677327394,0.8112763759999999,0
900,0.29928588899999997,0.7462921140000001,-0.137481689,-0.19331885899999998,1.939000487,0.9926136729999999,0
901,0.47026062,0.7278594970000001,-0.16004943800000002,-0.292278737,2.837566137,1.5673264269999998,0
902,-0.048446655,0.6966705320000001,-0.33190918,0.324956238,1.104400635,0.677369952,0
903,-0.336288452,0.609237671,-0.225738525,1.200377464,0.891235888,0.34629643,0
904,-0.349884033,0.635498047,-0.128341675,1.911977887,0.618619561,0.18448355800000002,0
905,-0.42678833,0.974899292,-0.071777344,2.3758564,-0.6037766929999999,-0.938441753,0
906,0.9624328609999999,2.2400665280000003,3.0514221189999997,-2.904539585,3.820895672,0.294067055,0
907,0.9337005620000001,0.838989258,0.761428833,-0.19138194600000002,0.669099271,0.718927801,0
908,0.117736816,0.7237091059999999,0.061645507999999995,0.696689069,-0.796732008,0.375256985,0
909,-0.39125061,1.153396606,-0.209228516,0.294966668,-2.043406725,-0.50710398,0
910,0.236801147,1.53302002,-0.156188965,0.765758395,0.7697896359999999,-0.6602213379999999,0
911,0.21022033699999998,0.85395813,-0.2734375,0.229832128,1.85537076,0.212654471,0
912,-0.138381958,0.514862061,-0.387405396,0.918189228,0.54734993,-0.41583848,0
913,-0.159713745,0.897445679,-0.505462646,0.428128451,-2.301102877,-0.462731957,0
914,-0.125976563,1.146270752,-0.602035522,1.173395991,-1.2365970609999999,-0.469579488,0
915,0.059692382999999995,0.88369751,-0.21786499,1.205659389,0.319466949,-0.596359789,0
916,0.183227539,1.002166748,-0.037216187000000005,0.63392663,-0.132015288,-0.578096628,0
917,0.525634766,1.0696411129999999,0.1534729,1.433098316,-4.4859457019999995,-0.34202072,0
918,0.503616333,0.974075317,0.32920837399999997,-0.27112764100000003,-2.2861125469999997,-0.07963118,0
919,0.302185059,0.939575195,0.044845580999999995,-0.358482242,1.6512727740000002,0.019118568,0
920,0.14465332,0.9415435790000001,-0.150863647,0.176537752,2.4520082469999998,-0.114201404,0
921,0.08001709,0.9445648190000001,-0.15162658699999998,0.526883006,0.62677604,-0.224120453,0
922,0.075775146,1.001342773,-0.169296265,0.402769297,-1.6693577769999999,-0.216496348,0
923,0.003265381,1.100708008,-0.084121704,0.370242774,-2.117822409,-0.437166691,0
924,0.27297973600000003,1.03326416,0.074447632,-0.12118049,-0.396311134,-0.639505923,0
925,0.379592896,1.02545166,-0.026321411,-0.388598084,0.619511962,-0.49175587299999995,0
926,0.5852966310000001,1.263595581,-0.008590698,-0.571376681,0.488159567,-0.021630727000000002,0
927,0.7938842770000001,1.317489624,0.16600036599999998,-1.313596487,0.656479836,0.653058767,0
928,0.194869995,0.8290252690000001,0.461929321,-2.21287775,2.257245064,1.8678090569999999,0
929,-0.283706665,1.295761108,-0.08482360800000001,-2.862970352,1.931847453,1.341831803,0
930,-0.142776489,1.651351929,-0.55329895,-2.5151686669999997,-1.626277208,0.7268483040000001,0
931,0.17620849600000002,0.990951538,-0.179626465,-0.519362509,1.0755649809999999,0.797460973,0
932,0.411178589,0.9717407229999999,0.18006897,-0.07481645,3.357902288,0.8620335459999999,0
933,0.178359985,0.7929840090000001,-0.160827637,-0.7121271490000001,1.781321049,1.061016679,0
934,0.057983398,0.8087310790000001,-0.313842773,0.752431691,-0.09961793599999999,1.4052531719999999,0
935,-0.03553772,0.747192383,0.012435913,0.425604284,1.5888330940000002,0.9682084320000001,0
936,-0.023071289,0.7180938720000001,0.006896973000000001,0.9761018159999999,1.555756092,0.523156166,0
937,-0.005310059000000001,0.9027099609999999,0.140777588,0.942539334,1.9855037930000001,0.12035757300000001,0
938,0.20251464800000002,0.973754883,0.399475098,0.607038021,2.187834978,-0.103291765,0
939,0.605285645,1.089874268,0.5999450679999999,0.81115067,3.40225935,0.061021276,0
940,0.418182373,0.842514038,0.33743286100000003,1.02506566,2.531467199,0.340506971,0
941,-0.307876587,1.128982544,0.200790405,1.109377265,1.604545474,0.18028003,0
942,-0.093307495,0.9478607179999999,0.142486572,-0.12099938800000001,-1.5277215240000002,0.417269677,0
943,-0.12226867699999999,1.360076904,-0.393157959,1.178782463,-1.261612415,-0.206694052,0
944,0.21598815899999999,1.243530273,0.538772583,0.582943559,2.8961884980000003,-0.59655714,0
945,0.257263184,0.72605896,-0.24407959,0.362069011,0.529573321,-0.39040902299999997,0
946,0.049179077,0.717468262,-0.269470215,0.8127131459999999,1.005150795,-0.251050323,0
947,0.032730102999999997,1.136871338,-0.109375,1.050252438,1.564510226,-0.17330813399999997,0
948,0.20774841300000002,1.012420654,0.19006347699999998,1.473245025,1.423949361,-0.27806437,0
949,0.202209473,0.968841553,0.263961792,0.18484841300000002,1.552129149,-0.093418099,0
950,0.155334473,1.03213501,-0.041824341,-0.047544084,1.820430636,-0.122871064,0
951,0.23571777300000002,0.96031189,-0.18760681199999998,-0.046388537,2.863554239,-0.161456808,0
952,0.28686523399999997,0.9315032959999999,-0.218215942,0.10777945800000001,2.044542074,0.094704404,0
953,0.290390015,0.988891602,-0.201416016,0.420115799,1.208694816,0.326303273,0
954,0.216033936,1.015029907,-0.136581421,0.803860247,1.208611727,0.465914965,0
955,0.079620361,1.011062622,-0.06878662099999999,1.0352596040000002,1.080313921,0.461449116,0
956,-0.05322265599999999,1.025482178,0.012420654,0.743237138,0.7041347029999999,0.20964936899999997,0
957,-0.072753906,1.0019073490000001,0.024780273,0.078531295,0.880301476,-0.100482665,0
958,0.07452392599999999,0.9732360840000001,-0.073410034,-0.174797103,1.4849224090000002,-0.338502944,0
959,0.229187012,0.975708008,-0.156433105,-0.002245578,1.38532424,-0.274313033,0
960,0.320541382,0.943862915,-0.21934509300000002,0.226209968,0.732406318,0.037929807,0
961,0.276611328,0.932189941,-0.24394226100000002,0.602436304,-0.139290243,0.081561968,0
962,0.189575195,1.089691162,-0.124450684,0.445910364,0.554049075,0.10203582,0
963,-0.00138855,1.106628418,0.019943237,0.9037075040000001,1.7033280130000001,-0.089585811,0
964,0.061676025,0.9921875,0.194198608,-0.17319469199999998,0.88084662,-0.420344293,0
965,0.144226074,0.9841308590000001,-0.023605347000000002,-1.283623338,-0.070707992,-0.37127715299999997,0
966,0.20993042,0.932189941,-0.31184387199999997,-0.991935372,-0.170167997,-0.331242651,0
967,0.267807007,0.912658691,-0.338806152,-0.31767118,-0.1322065,-0.33968114899999996,0
968,0.291976929,0.92414856,-0.23628234899999997,0.278296083,0.598178446,-0.27478283600000003,0
969,0.152053833,0.992919922,0.032608032,0.77235055,1.193806648,-0.35827904899999996,0
970,0.200515747,1.1054229740000001,0.181915283,-0.15034236,1.836319566,-0.433127463,0
971,0.16868591300000002,1.00328064,0.10330200199999999,-0.7693587540000001,1.4633177519999998,-0.243372977,0
972,-0.108505249,1.0858917240000001,0.618408203,-1.206538677,1.896866322,-0.222456247,0
973,-0.084533691,1.2845153809999998,0.592880249,-2.329699993,1.2700319290000002,-0.599300206,0
974,0.156005859,1.266540527,0.108917236,-1.6306439640000001,0.43403852,-0.17691059399999998,0
975,0.286682129,0.9626770020000001,-0.01373291,-0.9684351090000001,1.698028088,0.37837445700000005,0
976,0.331008911,0.762359619,-0.148391724,-0.165605471,0.921689153,0.757218719,0
977,0.23182678199999998,0.774276733,-0.380844116,0.6604082579999999,1.272825122,1.362522244,0
978,0.029937744,0.9177551270000001,-0.281295776,0.9092356559999999,2.086005688,1.252693415,0
979,0.158233643,0.990066528,0.067382813,1.126572251,0.46103045299999995,1.219060421,0
980,0.088531494,1.161911011,0.396484375,0.7799509170000001,2.749532938,1.262129784,0
981,-0.082977295,1.201507568,0.162582397,-0.017058613,2.214361668,1.116881013,0
982,-0.032592773,0.980895996,-0.13844299300000001,0.038238466,1.417079687,0.8827399020000001,0
983,0.156463623,0.953292847,-0.025192261,0.249505967,1.843070149,0.7577944990000001,0
984,0.179504395,0.9157104490000001,0.222564697,0.256164402,1.9157625440000001,0.733118415,0
985,0.120437622,0.8926239009999999,0.21527099600000002,0.055139951,1.415159822,0.6741992240000001,0
986,0.127105713,0.852294922,0.137191772,0.068630457,1.30674839,0.53824991,0
987,0.16969299300000001,0.7943420409999999,0.151641846,0.315893769,1.314950943,0.356512576,0
988,0.250823975,0.825393677,0.31539917,0.464904845,1.4875965119999999,0.236076713,0
989,0.412185669,0.8552551270000001,0.302581787,0.694934845,1.4002048969999998,0.209124193,0
990,0.295883179,0.872543335,0.222488403,0.991133213,0.783148825,0.06613614400000001,0
991,0.141876221,0.8209075929999999,0.251159668,1.134469628,0.644018412,-0.19344162899999998,0
992,0.021743774,1.052124023,0.128753662,1.355997205,0.18078044100000001,-0.618569493,0
993,-0.010116577,2.115844727,0.16027832,1.3808718919999998,-0.348806977,-0.644931853,0
994,0.44569397,0.969940186,0.793121338,0.17517954100000002,0.651764214,-0.19028419300000002,0
995,0.118591309,0.48196411100000003,-0.333084106,-0.766374111,0.708441854,0.24182806899999998,0
996,-0.099716187,0.47967529299999995,-0.6957092290000001,-0.063089751,1.1578452590000001,-0.412386775,0
997,0.026824951,1.2394104,-0.60043335,0.65665108,0.7213835120000001,-0.112468489,0
998,0.21604919399999997,1.121261597,-0.259384155,0.727769494,-0.150178581,0.298035145,0
999,0.137634277,0.8185577390000001,-0.050231934000000006,1.167733788,-3.8120040889999998,0.079894036,0
1000,0.112609863,0.9690551759999999,0.014297485,0.535992563,-3.278405905,0.168403119,0
1001,0.061416625999999995,0.946594238,-0.09458923300000001,0.090010583,-0.695728183,-0.19144159600000002,0
1002,0.12767028800000002,1.007339478,-0.126174927,0.658598125,0.604343176,-0.5132347939999999,0
1003,0.321380615,1.034088135,-0.083999634,0.539117038,0.287416607,-0.322907746,0
1004,0.387619019,0.93963623,-0.059417725,0.348646939,-1.339722037,0.06079331,0
1005,0.142410278,0.977432251,-0.057556152,0.10251492300000001,-1.975831985,0.191516429,0
1006,0.043380737,0.9899597170000001,-0.09718322800000001,0.187411964,-1.940654039,-0.024893099,0
1007,0.077636719,1.0804901120000001,-0.085617065,0.19022293399999998,-1.450891256,-0.369042486,0
1008,0.214324951,1.022750854,-0.06300354,0.010500045,-1.111866236,-0.41204559799999996,0
1009,0.21949768100000003,1.046142578,-0.104049683,-0.170371473,-0.6509029270000001,-0.589767396,0
1010,0.40124511700000004,0.9768676759999999,-0.07464599599999999,0.199714184,-1.560188651,-0.48929938700000003,0
1011,0.5821380620000001,1.304824829,0.001800537,-0.259068847,-1.535619736,0.277274758,0
1012,0.59928894,1.166625977,0.26432800300000003,-1.350993156,-1.187879562,0.7905101179999999,0
1013,0.04359436,0.895843506,0.690322876,-2.57572341,1.572303891,1.8566919569999998,0
1014,-0.19519043,1.421401978,-0.016708373999999998,-2.919893265,3.426719189,1.1429091690000002,0
1015,-0.145599365,1.563400269,-0.520095825,-2.798298597,-0.483605295,0.07621700299999999,0
1016,0.019592285,1.203109741,-0.34899902299999996,-1.18611598,-1.896292686,0.68590647,0
1017,0.350921631,0.890686035,0.503372192,-0.273195595,0.232459605,1.159500599,0
1018,0.08943176300000001,0.762969971,-0.09011840800000001,-0.9187857509999999,1.375811338,0.9900093670000001,0
1019,0.22550964399999998,0.714813232,-0.17115783699999998,-0.645238936,1.336191773,0.9452229740000001,0
1020,-0.042358398,0.6458435060000001,-0.22192382800000002,0.139155492,0.7134310009999999,0.478167385,0
1021,-0.20610046399999998,0.5725250239999999,-0.159606934,0.771837592,0.283632517,0.11594817,0
1022,-0.251861572,0.581329346,-0.109237671,1.4680145980000001,-0.212849155,-0.46623376,0
1023,-0.2684021,0.8964691159999999,-0.06706237799999999,2.061167717,-0.554167867,-1.3618772030000001,0
1024,1.302856445,2.280258179,2.7991333010000004,-1.836514235,3.47806406,0.478326619,0
1025,0.906799316,0.8327178959999999,0.76852417,0.057350639,-0.35753175600000003,1.206582427,0
1026,0.026229857999999998,0.516098022,-0.036849976,0.560403109,-0.8563535809999999,0.017754762,0
1027,-0.31463623,1.647857666,-0.375991821,0.640112579,-2.29126215,-0.984949112,0
1028,0.082443237,1.095397949,0.58265686,0.30925506399999997,1.8355243209999998,-0.07886924599999999,0
1029,0.069274902,0.793930054,-0.29974365199999997,0.681922615,1.964067459,-0.469847381,0
1030,-0.073669434,0.703857422,-0.29524231,0.404314458,0.210184932,-0.779164255,0
1031,0.000854492,0.989273071,-0.43103027299999996,0.20850926600000003,-1.1273463959999999,-0.304570287,0
1032,0.135650635,1.084152222,-0.401504517,1.05497241,-0.6364422439999999,-0.267013848,0
1033,0.144287109,0.8789520259999999,-0.20930481,1.1827844379999999,-0.16202645,-0.39676013600000004,0
1034,0.248321533,0.9486999509999999,-0.055603027,0.7056218390000001,-1.432019472,-0.406415701,0
1035,0.317108154,0.996643066,0.007003784,0.944454372,-3.140506268,-0.21289043100000002,0
1036,0.293334961,1.022598267,0.08395385699999999,0.520822406,-2.446815968,-0.17023538100000002,0
1037,0.216705322,0.9710388179999999,0.089660645,0.234895065,-0.184904873,-0.220071107,0
1038,0.14538574199999998,0.9645996090000001,0.010147095,0.353796691,1.149826407,-0.25791490100000003,0
1039,0.12463378900000001,1.011260986,-0.077682495,0.24417752,0.831773102,-0.39523494200000003,0
1040,0.088623047,1.088409424,-0.13890075699999999,0.34131419700000004,-0.935275793,-0.35917174799999996,0
1041,0.126922607,0.992507935,-0.07762146,-0.064761952,-1.657156825,-0.562468112,0
1042,0.351821899,0.993118286,-0.032821655,0.073578879,-0.510410786,-0.455317706,0
1043,0.38508606,1.077346802,0.034988403,-0.34180685899999996,0.266211718,-0.168428153,0
1044,0.5419311520000001,1.348556519,0.09970092800000001,-0.8435400129999999,-0.07376210400000001,0.35391491700000005,0
1045,0.38760376,0.9436340329999999,0.301254272,-2.030055761,0.542290986,1.391612768,0
1046,-0.332199097,1.077087402,0.360061646,-2.69278574,1.183964133,1.636683941,0
1047,-0.264892578,1.6094055180000002,-0.282516479,-3.121951342,-1.385246992,0.96402061,0
1048,-0.017700195,1.281768799,-0.23832702600000003,-1.219327807,-0.316711903,0.50660193,0
1049,0.240890503,0.917266846,0.162979126,-0.256213129,1.759521246,0.7596136929999999,0
1050,0.288513184,0.815582275,-0.057373047,-0.498383701,1.555550575,1.141101956,0
1051,0.305160522,0.79624939,-0.165939331,-0.339204699,2.2163467409999997,1.4104782340000002,0
1052,-0.034439087,0.7453460690000001,-0.285629272,0.075500615,1.330907345,0.725286365,0
1053,-0.26263427699999997,0.663894653,-0.206268311,0.841086447,0.900797188,0.38895121200000005,0
1054,-0.274291992,0.594955444,-0.094818115,1.5945088859999998,0.633660555,0.19551357600000002,0
1055,-0.32330322300000003,0.785186768,-0.104736328,2.39948678,-0.717356801,-0.620711982,0
1056,0.07316589400000001,1.826416016,1.660095215,-0.934855819,0.904308856,-0.703231394,0
1057,1.5489349369999998,1.3383178709999999,1.088027954,-0.662442148,0.489878088,1.349582434,0
1058,0.29611206100000004,0.546676636,0.107040405,0.448424399,-0.30978635,0.31882804600000003,0
1059,-0.24276733399999997,0.897583008,-0.38432312,-0.29789269,-2.033570051,0.068090372,0
1060,-0.23107910199999998,1.66545105,-0.34492492700000005,1.059045672,-0.982456088,-1.669573784,0
1061,0.175506592,1.0501403809999998,-0.172149658,0.770235717,3.194648743,0.028205805,0
1062,-0.074188232,0.337677002,-0.33216857899999996,0.564498246,1.7694960830000002,-0.565578699,0
1063,0.011550903000000001,0.759002686,-0.520202637,0.082869053,-2.892863989,-0.41826996200000005,0
1064,0.019989014,1.293685913,-0.6272888179999999,1.331369638,-2.158735037,-0.134452343,0
1065,0.10325622599999999,0.864944458,-0.17991638199999999,1.061220407,0.349053055,-0.301123083,0
1066,0.191619873,1.000534058,-0.023544312,0.6809700129999999,-0.877353132,-0.46480709299999995,0
1067,0.451278687,1.0381317140000001,0.175445557,0.9714782829999999,-5.025387287,-0.25190174600000004,0
1068,0.416656494,0.933120728,0.145675659,-0.312761098,-1.137993455,-0.16850619,0
1069,0.25045776399999997,0.9457092290000001,-0.031494141,0.196060583,1.739071131,-0.016478043,0
1070,0.078857422,0.966323853,-0.076324463,0.320362031,1.5493304730000002,-0.223223493,0
1071,0.037185669,1.01600647,-0.098297119,0.23122736800000002,-0.310831368,-0.22967340100000003,0
1072,0.051452637,1.079833984,-0.127380371,0.184193805,-1.9339228869999998,-0.322807342,0
1073,0.270141602,1.004699707,-0.022537231,-0.171870023,-1.194740176,-0.47434282299999997,0
1074,0.369537354,1.040878296,0.022232056,-0.370687246,-0.418902725,-0.221234381,0
1075,0.395736694,1.142379761,0.007736206,-0.6944118140000001,0.012021509,0.106218845,0
1076,0.4972229,1.234375,0.20320129399999998,-1.049633861,-0.714117587,0.45841711799999996,0
1077,0.35688781700000005,0.9372558590000001,0.622970581,-2.650127411,1.466098428,1.092047095,0
1078,-0.039245605,1.07472229,0.101074219,-3.132773399,3.226704121,1.5987949369999999,0
1079,-0.28616333,1.7829742430000002,-0.55657959,-2.610571861,-3.100157738,0.41609200799999996,0
1080,0.020385742,1.014648438,-0.156509399,-0.253809363,-0.262360245,0.537176371,0
1081,0.42639160200000004,0.932434082,0.27557373,-0.662649333,1.438344479,0.8910156490000001,0
1082,0.29977417,0.714401245,-0.138839722,0.135721073,1.4555940630000002,1.1451635359999999,0
1083,0.11370849599999999,0.665405273,-0.10580444300000001,-0.036646429,1.8110365869999998,0.7408493159999999,0
1084,-0.111831665,0.6962127690000001,-0.21556091300000002,0.453285724,1.395303845,0.632306635,0
1085,-0.297027588,0.6966857909999999,-0.09664917,1.3662903309999999,0.7426602840000001,0.41341659399999997,0
1086,-0.24836731,0.7443542479999999,0.029647827,1.8722655769999998,-0.114164121,0.004261058,0
1087,-0.219818115,0.92477417,0.030426025,1.782358885,-0.50130254,-0.568982244,0
1088,0.467849731,1.704620361,1.47958374,-0.612440228,2.33999157,-0.45128062399999996,0
1089,0.928695679,1.06703186,1.101501465,-1.023887396,-0.7693803309999999,0.398584932,0
1090,0.229003906,0.783615112,0.22668457,1.031331539,-1.240994215,0.255791306,0
1091,-0.058013916,0.9294128420000001,0.072174072,-0.24501082300000002,0.532266319,0.030249782000000003,0
1092,0.081817627,1.409454346,-0.172012329,0.48805356,-0.195164695,-0.6662110689999999,0
1093,0.9527282709999999,1.50617981,0.7499847409999999,-0.21705508199999998,0.01920432,0.63962096,0
1094,-0.125488281,0.683822632,-0.398239136,0.329942495,1.711820602,0.23628071,0
1095,-0.33555603,0.642654419,-0.318283081,0.94892478,-2.44212079,-0.5839082,0
1096,-0.22871398899999998,1.051895142,-0.25509643600000004,0.397073865,-1.342305303,-0.516887605,0
1097,-0.004013062,1.1295471190000002,-0.292953491,0.5295354720000001,1.287459731,-0.7981834409999999,0
1098,0.196228027,0.95413208,-0.168457031,1.092725873,1.624073625,-0.863649845,0
1099,0.531967163,0.9496765140000001,0.028671265,1.5165317059999999,-3.060274839,-0.61567837,0
1100,0.28553772,0.902694702,0.089645386,0.062428225,-2.023515701,0.08745528,0
1101,0.169708252,1.067962646,0.031600952,0.33811146,-1.8373619319999999,-0.046358977,0
1102,0.344482422,1.022994995,0.08367919900000001,0.426275402,-0.62305665,-0.294479311,0
1103,0.30279541,0.94569397,0.082855225,0.11870188300000001,0.495454758,0.060422595999999995,0
1104,0.17468261699999998,0.9499664309999999,-0.026214599999999994,0.10204487300000001,0.620252371,0.170127526,0
1105,0.089080811,0.9112091059999999,-0.070709229,0.025691515,0.166738644,0.014904913,0
1106,0.019271851,0.9365234379999999,-0.20515441899999998,0.10340441800000001,-0.594052672,-0.285406172,0
1107,0.018569946,1.056838989,-0.26263427699999997,0.45802375700000003,-0.7302047009999999,-0.652985275,0
1108,0.14352417,1.1098022459999999,-0.177352905,0.420029759,-0.24194605600000002,-0.8669630290000001,0
1109,0.446334839,1.038238525,0.08433532699999999,0.463256866,-0.824252903,-0.699076593,0
1110,0.330245972,1.05456543,0.149246216,-0.5218040939999999,0.035620045,-0.397095144,0
1111,0.443908691,1.308074951,-0.020309448,-0.87501806,1.33922565,-0.193471998,0
1112,0.501983643,1.114242554,0.08656311,-1.3605227469999999,1.103044271,0.205896437,0
1113,0.19526672399999997,0.875793457,0.294799805,-1.85615778,1.334006906,1.363722444,0
1114,-0.135803223,1.3998565669999998,0.396484375,-3.1008718010000003,1.047644138,1.357753515,0
1115,-0.047805785999999996,1.371170044,-0.367004395,-2.447632551,-1.3917556999999998,0.8557924029999999,0
1116,0.1743927,1.0670776370000001,-0.46798706100000004,-0.980561256,1.339363098,1.2817910909999999,0
1117,0.18168640100000003,1.043197632,-0.18196106,0.268859953,0.595897973,1.2629446979999999,0
1118,0.452560425,0.990722656,0.31494140600000003,-0.970300913,1.7235711809999998,2.138598919,0
1119,0.047134399,0.984207153,-0.20002746600000001,-0.48771053600000003,2.67513895,1.215067267,0
1120,-0.070724487,0.849441528,-0.087905884,-0.18449288600000002,1.423640728,1.328240871,0
1121,0.031860352,0.8239135740000001,0.00982666,0.35688382399999996,1.504708886,1.1343787909999998,0
1122,-0.114044189,0.701522827,-0.17588806199999998,1.114936352,0.6181793210000001,0.639725924,0
1123,-0.258636475,0.636169434,-0.139297485,1.905682921,-0.36629623200000005,0.03681767,0
1124,-0.287612915,0.6954498290000001,-0.048355102999999997,2.694174528,-1.4247163530000002,-0.548579216,0
1125,-0.330810547,0.94581604,0.270355225,2.168851137,-1.297263861,-1.457818151,0
1126,0.8672332759999999,1.656066895,1.30796814,-0.392709464,3.080136538,-0.8388379220000001,0
1127,1.194137573,1.190917969,0.909286499,-0.16367495099999999,-0.39386287299999995,0.37003186299999996,0
1128,0.659973145,0.622848511,0.09338378900000001,0.365456551,-1.020430923,0.269271672,0
1129,-0.09176635699999999,1.4706573490000001,-0.304901123,0.016193351,-0.761539161,-0.373958409,0
1130,0.42524719200000005,1.539749146,0.285842896,0.919420958,0.249557361,0.19675274199999998,0
1131,-0.122131348,0.683746338,-0.286987305,0.25139761,2.034804344,0.129028022,0
1132,-0.23054504399999998,0.588012695,-0.41159057600000004,0.923598886,0.68280679,-0.8239695429999999,0
1133,-0.222671509,1.0217437740000002,-0.48583984399999997,0.40598052700000004,-1.721427083,-0.417199105,0
1134,-0.154418945,1.083496094,-0.555770874,1.195911407,-1.846336246,-0.226034194,0
1135,0.038772583,0.862472534,-0.162918091,1.171820402,0.227677107,-0.5909942979999999,0
1136,0.18238830600000003,0.9709777829999999,-0.056365967,0.457256228,0.087091759,-0.588397205,0
1137,0.43049621600000004,1.0911254879999999,-0.021072387999999997,1.131257296,-3.805676937,-0.505923927,0
1138,0.374679565,0.950759888,0.014755249,-0.064522535,-1.6962277890000002,0.06807545599999999,0
1139,0.28128051800000003,0.965026855,-0.12031555199999999,0.332319349,0.044553887,-0.184669718,0
1140,0.17578125,0.9891815190000001,-0.081802368,0.557151139,0.143347844,-0.169197008,0
1141,0.058624268,0.983551025,-0.09703064,0.324581802,-0.8982996940000001,-0.099468797,0
1142,-0.037231445,1.0088348390000001,-0.163070679,0.316330016,-2.166246176,-0.376299053,0
1143,0.142410278,1.056640625,-0.08975219699999999,0.009784454,-0.971486807,-0.6637532110000001,0
1144,0.358825684,1.00177002,-0.021820067999999998,0.045868423,-0.649416625,-0.388623923,0
1145,0.33717346200000003,1.02532959,-0.042190552,-0.244454488,-0.24894936399999998,-0.384815335,0
1146,0.554382324,1.341308594,0.042816162000000005,-0.511358857,-0.596051395,0.25783154399999997,0
1147,0.607452393,1.112060547,0.313674927,-2.0407791140000002,-0.26653555,1.128465533,0
1148,-0.081680298,0.879547119,0.503097534,-2.7103109360000004,1.7179024219999999,2.156839609,0
1149,-0.245605469,1.63343811,-0.177078247,-2.894639492,0.8174799079999999,1.2334382529999999,0
1150,-0.288833618,1.6049194340000001,-0.326293945,-2.2454586030000003,-2.2550349240000003,0.477119952,0
1151,0.109481812,1.013076782,0.050018310999999996,-0.627475083,0.820294082,0.673793077,0
1152,0.098876953,0.7926330570000001,-0.010330200000000001,-0.8138444420000001,1.283265471,0.719433248,0
1153,0.32077026399999997,0.690155029,-0.20324707,-0.286901802,0.604450464,1.433223844,0
1154,0.170440674,0.7029113770000001,-0.097473145,-0.229692847,1.469067335,1.253239632,0
1155,-0.038604736,0.661224365,-0.25323486300000003,0.583320975,1.18846786,0.37120416799999995,0
1156,-0.232940674,0.651473999,-0.172149658,1.321693301,0.543366611,0.052326585999999994,0
1157,-0.348556519,0.626541138,-0.068756104,2.097516298,-0.019799005,-0.644678831,0
1158,-0.42825317399999996,1.397003174,0.539367676,1.196541548,-0.460070133,-1.909247041,0
1159,1.629898071,1.857940674,1.636505127,-1.3350123170000001,0.585317791,1.274659753,0
1160,0.42590332,0.498474121,0.265670776,0.8805403709999999,0.260393232,0.069521286,0
1161,-0.158508301,1.309463501,-0.32424926800000003,-0.216403946,-2.8571021560000003,-0.121540815,0
1162,-0.03616333,1.166854858,-0.28894043,0.591734409,-1.131791234,0.009394300999999999,0
1163,0.076049805,0.917617798,-0.10916137699999999,0.519263923,1.9025467630000001,-0.425434649,0
1164,0.009902954,0.796432495,-0.351501465,0.57774508,2.1870629790000002,-0.841169834,0
1165,0.046463013,0.9098205570000001,-0.504714966,0.27103576100000004,-0.587083757,-0.415499985,0
1166,0.089645386,1.073059082,-0.591278076,1.281489968,-1.211360097,-0.24383796800000002,0
1167,0.104400635,0.8583984379999999,-0.28036499,1.367877245,-0.521214724,-0.16727234400000002,0
1168,0.090530396,0.942367554,-0.059005737,0.8009984490000001,-2.336253405,-0.262140274,0
1169,0.16723632800000002,1.0497589109999999,-0.012390136999999999,0.663954794,-3.64722538,-0.525456309,0
1170,0.40742492700000005,1.050292969,0.042541504,0.766895056,-2.676474094,-0.441900969,0
1171,0.449188232,0.92640686,0.07843017599999999,0.324110419,0.536914051,-0.535320938,0
1172,0.19277954100000003,0.9921722409999999,0.051498413,0.18399167100000002,0.785381675,-0.231443077,0
1173,0.10505676300000001,1.0153656009999998,-0.07849121099999999,-0.023878701000000002,0.34453979100000004,-0.166864619,0
1174,0.023300171,1.027175903,-0.08956909199999999,-0.014405571,-1.126635909,-0.370071799,0
1175,0.16816711399999998,0.999435425,-0.147857666,-0.35247868299999996,-0.776358604,-0.563190639,0
1176,0.24082946800000002,0.993179321,-0.142181396,0.25269112,-0.607425749,-0.413493574,0
1177,0.286010742,0.9573059079999999,-0.01184082,-0.19039844,-0.908286273,-0.530540824,0
1178,0.5712738039999999,1.3042602540000001,0.016159058,-0.65212214,-0.36914101200000005,0.117048062,0
1179,0.612518311,1.184585571,0.216308594,-1.3997992280000002,0.495048344,0.895905495,0
1180,-0.055465698,0.820465088,0.458984375,-2.303686619,1.238457799,1.7924661640000001,0
1181,-0.247894287,1.3805847169999999,-0.084564209,-2.6891977789999997,0.566335857,1.1995716090000001,0
1182,-0.08166503900000001,1.4860992430000002,-0.36437988299999996,-1.74677825,-0.7187832,0.5801305170000001,0
1183,0.22163391100000002,1.000564575,-0.040115356,-0.506866932,1.182599068,0.695610464,0
1184,0.218215942,0.8912200929999999,0.040130615,-0.416905075,1.4323468209999999,0.771429062,0
1185,0.476821899,0.824752808,-0.156402588,0.065460764,1.989904642,1.822000623,0
1186,0.19250488300000002,0.85383606,-0.191040039,0.100444585,1.625223279,1.412035465,0
1187,-0.13142395,0.817977905,-0.143768311,0.5931072829999999,1.507156849,0.880253017,0
1188,-0.23042297399999997,0.748718262,-0.088653564,1.065816998,1.243124723,0.643638611,0
1189,-0.304748535,0.66494751,-0.109298706,1.568824768,-0.063721456,-0.09233205800000001,0
1190,-0.393203735,0.8868255620000001,0.010375977,1.588944435,-0.706988037,-1.320709825,0
1191,0.391357422,1.534866333,1.4874877930000001,-0.909687102,3.24517417,-0.8758484129999999,0
1192,1.388580322,1.279083252,0.7919158940000001,1.06978488,0.78897959,0.88553673,0
1193,0.538497925,0.73286438,0.35075378399999996,0.033552367,-1.949216366,0.549375236,0
1194,-0.157287598,1.145446777,-0.019668579,-0.338692576,-1.477097034,-0.01563968,0
1195,-0.080917358,1.410476685,-0.25651550300000003,0.40666869299999997,1.352365494,-0.663488746,0
1196,0.30520629899999996,0.913909912,0.10832214400000001,0.79491818,1.08630228,0.064284183,0
1197,-0.031845093,0.649108887,-0.150848389,0.295067847,0.5797198410000001,-0.446703732,0
1198,-0.042419434000000006,0.858673096,-0.343307495,0.182054222,-0.934874713,-0.49181234799999995,0
1199,-0.043945313,1.123565674,-0.508590698,0.596569657,-0.821834981,-0.36422509,0
1200,0.055862427,0.882034302,-0.41229248,1.1417599920000001,0.60704118,-0.43252691600000004,0
1201,0.20317077600000003,0.962020874,-0.136459351,0.874763727,0.029270537000000003,-0.305214494,0
1202,0.217315674,1.034332275,-0.04284668,1.054861903,-2.530031681,-0.224889845,0
1203,0.42398071299999995,1.076751709,0.185836792,0.747321606,-5.326131343999999,-0.10142009699999999,0
1204,0.380783081,0.8704071040000001,0.20159912100000002,-0.692079902,-0.144784883,0.019359583,0
1205,0.18637085,0.9569549559999999,-0.08941650400000001,-0.072448105,2.5829248430000002,-0.100686662,0
1206,0.132736206,0.9394378659999999,-0.123855591,0.234957919,1.97926259,-0.267884165,0
1207,0.079528809,0.9788208009999999,-0.183837891,0.112467155,-0.3428756,-0.200755745,0
1208,0.013244628999999999,1.044845581,-0.27357482899999996,0.265017807,-2.314245701,-0.445418745,0
1209,0.140670776,0.969894409,-0.165649414,0.134849429,-0.32961171899999997,-0.590287805,0
1210,0.288619995,1.025924683,-0.047409058,0.675272167,-0.534367502,-0.48003426200000004,0
1211,0.295150757,0.982589722,0.123168945,-0.489381671,-0.744126618,-0.29976061,0
1212,0.49949646,1.281585693,0.010650635,-0.7993491290000001,0.27080059100000003,-0.078082554,0
1213,0.5768127439999999,1.069625854,0.097824097,-1.2330592870000001,0.303107142,0.73878485,0
1214,0.02885437,0.860626221,0.329605103,-1.738708854,0.059250805999999996,1.564191937,0
1215,-0.275497437,1.21484375,0.17456054699999998,-2.431697845,0.619967401,1.241883993,0
1216,-0.042129517000000005,1.4450378419999999,-0.30607605,-1.7382756469999998,-0.38216173600000003,0.65173918,0
1217,0.12651062,1.1337432859999999,-0.134475708,-0.676041305,0.84511739,0.6851215959999999,0
1218,0.236572266,1.0386505129999999,0.186080933,-0.21868360000000003,0.9012603159999999,0.8159507509999999,0
1219,0.083129883,0.828567505,-0.119537354,-0.155462027,0.48805117600000003,1.102332115,0
1220,0.114471436,0.796615601,-0.163299561,0.109164573,1.537332654,1.262131095,0
1221,0.01461792,0.830078125,-0.07160949700000001,0.19220539899999997,1.268180847,0.72639823,0
1222,-0.173446655,0.765457153,-0.019882201999999998,0.8549186590000001,0.9813405279999999,0.257410765,0
1223,-0.27619934100000004,0.7131958009999999,-0.038543701,1.272207975,0.004463192,-0.282095879,0
1224,-0.223632813,0.985015869,0.102661133,1.3912720680000001,-0.141982436,-1.041665316,0
1225,0.32302856399999996,1.238937378,0.704406738,0.222921759,0.8589195009999999,-0.917959154,0
1226,1.0290069579999999,1.172149658,0.880004883,-0.167099506,0.347393125,0.38247388600000004,0
1227,0.59161377,0.9815216059999999,0.269882202,0.399768174,-0.073471025,0.41489440200000005,0
1228,0.05738830599999999,0.7575988770000001,0.10543823199999999,-0.22228606,-0.42856758799999994,0.411832035,0
1229,-0.095504761,1.1796417240000001,-0.058502197,0.551942527,0.185813278,-0.49177399299999996,0
1230,0.151870728,1.4428100590000001,-0.049163818,0.814632237,0.41830617200000003,-0.35709101,0
1231,0.331466675,0.9550933840000001,0.13146972699999998,0.37720054399999997,-0.8393210170000001,0.22059682,0
1232,-0.038619995,0.648361206,-0.10328674300000001,-0.117258713,0.44840309,-0.042710446,0
1233,-0.11154174800000001,0.80380249,-0.27124023399999997,0.238822162,-0.094415717,-0.414665103,0
1234,-0.0040588379999999995,1.151611328,-0.295028687,0.203944609,0.8883354659999999,-0.448518395,0
1235,0.19485473600000003,0.995422363,-0.306259155,0.6644850370000001,1.633968949,-0.37644687299999996,0
1236,0.252563477,0.929260254,-0.159255981,0.887425184,0.27974829100000004,-0.328526765,0
1237,0.217834473,0.9008483890000001,-0.022277832,0.721153378,-2.471027851,0.06392785200000001,0
1238,0.11889648400000001,0.9612426759999999,-0.057357788,0.012587963999999998,-2.1830213069999997,0.02352237,0
1239,0.144989014,1.077514648,-0.09458923300000001,0.41774132799999997,-1.4480712409999998,-0.091505684,0
1240,0.265014648,1.019866943,-0.014953613000000001,0.500997841,-0.288003832,-0.319634467,0
1241,0.309768677,0.9427032470000001,-0.020965576,0.33960735799999997,0.131909832,-0.205512151,0
1242,0.16999816899999998,0.9758758540000001,-0.056213379,0.27598151600000004,-0.088934399,-0.09790685800000001,0
1243,0.11692810099999999,0.96887207,-0.105926514,0.281185061,-0.75766933,-0.10505877400000001,0
1244,0.08476257300000001,0.9917907709999999,-0.119522095,0.16572798800000002,-1.264575124,-0.287198216,0
1245,0.168792725,1.048171997,-0.09492492699999999,0.164945543,-0.581195235,-0.531432211,0
1246,0.268508911,1.0189819340000001,-0.085357666,0.043686759000000006,-0.407103837,-0.392706811,0
1247,0.221115112,0.9940338129999999,-0.08879089400000001,-0.13412238699999998,-0.515861511,-0.414933801,0
1248,0.231903076,0.945343018,-0.030441284,0.157595485,-0.902584672,-0.381764948,0
1249,0.46812439,1.211593628,0.06739807099999999,-0.42155495299999995,-0.2304167,-0.209806755,0
1250,0.612869263,1.171279907,0.078338623,-1.16501689,0.5572411420000001,0.586275756,0
1251,0.14201355,0.885055542,0.249847412,-1.4872617719999999,0.334912747,1.555810928,0
1252,-0.429244995,1.201873779,0.49717712399999997,-2.5143377780000002,1.256187201,1.213895679,0
1253,-0.197357178,1.551849365,-0.304870605,-2.2872772219999997,-1.285416245,0.6229908470000001,0
1254,0.071090698,1.217422485,-0.257125854,-1.081842303,-0.39332971,0.658674061,0
1255,0.289413452,1.049514771,0.19651794399999997,-0.44896048299999997,0.596111596,0.946681082,0
1256,0.241073608,0.7441864009999999,0.019210815,-0.609608233,0.240774795,1.193324089,0
1257,0.18273925800000002,0.730789185,-0.094284058,-0.40169602600000004,1.498789787,1.150412917,0
1258,-0.081695557,0.7478027340000001,-0.128250122,-0.188192815,0.975757957,0.377155542,0
1259,-0.23365783699999998,0.620803833,-0.047531128,0.61094141,0.427067429,0.2862086,0
1260,-0.155197144,0.570007324,-0.071533203,1.1886811259999999,-0.5067532060000001,-0.274589211,0
1261,-0.17532348600000003,0.7631073,-0.040496826,1.416564345,-0.309063047,-0.9347367879999999,0
1262,0.11280822800000001,1.3724365230000002,0.499267578,0.8890444040000001,0.15592888,-1.167325258,0
1263,1.555435181,1.5477142330000002,1.334960938,-0.09618751699999999,0.345140606,0.968306482,0
1264,0.7405700679999999,0.7438964840000001,0.505096436,0.312971771,-0.8389034870000001,0.33954557799999996,0
1265,-0.155410767,0.952835083,0.126296997,0.058922704000000006,0.021428593,0.330798149,0
1266,-0.271194458,1.3594818119999998,-0.328674316,0.265481472,-1.14846611,-1.116944671,0
1267,0.333129883,1.145187378,0.345199585,0.725665569,1.0688543320000001,-0.05419293,0
1268,0.01272583,0.592681885,-0.147354126,0.224549755,1.241569996,-0.326426327,0
1269,-0.023757935,0.76348877,-0.301345825,0.28679609300000003,0.0035422709999999996,-0.7468352909999999,0
1270,-0.006744385,1.187942505,-0.522827148,0.34670949,-0.805985987,-0.311916888,0
1271,0.085800171,0.936325073,-0.565536499,1.291318893,-0.295152813,-0.172495872,0
1272,0.12310791,0.9039611820000001,-0.178695679,1.014424682,-0.343854845,-0.314885497,0
1273,0.163650513,1.005279541,-0.054107666,0.518597066,-1.5299042459999999,-0.21438527100000002,0
1274,0.297210693,1.040557861,0.025909424,0.878986418,-4.211327553,-0.40456026799999995,0
1275,0.375976563,1.031845093,0.028213501000000002,-0.001296427,-1.5856753590000001,-0.22528398,0
1276,0.243453979,0.9081268309999999,-0.066467285,0.461992145,1.097134709,-0.30141842399999996,0
1277,0.126678467,0.970993042,-0.08164978,0.82555759,1.276637435,-0.423757941,0
1278,0.09202575699999999,1.030685425,-0.045471190999999994,0.391492933,-0.6717030409999999,-0.26706925,0
1279,0.060317993,1.1309051509999999,-0.044525145999999995,-0.059898488,-2.4557938580000003,-0.439823449,0
1280,0.32334899899999997,0.992675781,-0.010437011999999999,-0.374063075,-1.000847101,-0.606553555,0
1281,0.378341675,0.9556579590000001,-0.030319214,-0.353180975,-0.145711392,-0.28793031,0
1282,0.512771606,1.158691406,-0.005874634,-0.659173667,-0.04881601,0.082176626,0
1283,0.665222168,1.221481323,0.176071167,-1.519453764,-0.17440535100000001,0.832426131,0
1284,0.16607666,0.8974609379999999,0.47253418,-2.6376633640000002,1.294798851,2.26279664,0
1285,-0.366287231,1.5436096190000002,-0.06414794900000001,-3.0708734989999997,-0.24256683899999998,1.769582868,0
1286,-0.345306396,1.6618804930000002,-0.34313964799999996,-2.075847864,-2.058875084,0.724258363,0
1287,0.167419434,1.011566162,0.013198853,-0.532468677,1.9269754890000002,0.7430251240000001,0
1288,0.261657715,0.841186523,0.098312378,-0.622370064,1.907325625,0.6717520359999999,0
1289,0.375839233,0.7890777590000001,-0.195068359,-0.028120585,1.086668491,1.400910616,0
1290,0.127456665,0.756820679,-0.13366699199999998,-0.274455518,1.755230904,0.859398365,0
1291,-0.195129395,0.57774353,-0.27780151399999997,0.677635491,0.8763871790000001,0.350205958,0
1292,-0.337509155,0.566009521,-0.146286011,1.472237229,0.6933183070000001,0.140305176,0
1293,-0.272262573,0.643264771,-0.104919434,1.816299558,0.46288055200000006,-0.5101923939999999,0
1294,-0.38681030299999997,1.2914428709999999,0.10133361800000001,1.694315314,-0.5312849279999999,-1.485654235,0
1295,1.686019897,2.062423706,1.796707153,-0.9209282990000001,0.936653972,1.462856531,0
1296,0.31944274899999997,0.38743591299999997,0.44329834,0.304425955,0.456083119,0.029207686,0
1297,-0.12208557099999999,0.894470215,-0.019165039,0.376108915,-1.382540703,0.397391021,0
1298,-0.221694946,1.360733032,-0.467529297,0.31218984699999996,-2.157138109,-1.279797792,0
1299,0.44091796899999997,1.472595215,1.070419312,0.410511643,2.245086908,-0.442729235,0
1300,0.254501343,0.7673797609999999,-0.279296875,0.793203592,2.441084862,-0.198978871,0
1301,-0.033782959,0.508041382,-0.282302856,0.20246228600000002,-0.072637983,-0.422107846,0
1302,0.020996094,1.013076782,-0.492141724,0.319091171,-2.380959749,-0.14028680300000002,0
