,0,AccelerationY,AccelerationZ,GyroscopeX,GyroscopeY,GyroscopeZ,Label
0,0.0546875,-0.4706573486328125,-0.8644866943359375,-0.3215245008468628,-0.2563505470752716,-0.6500706672668457,Moving 
1,0.02587890625,-0.4787750244140625,-0.928802490234375,-0.1462501585483551,-0.4643450379371643,-0.887411892414093,Moving 
2,0.067138671875,-0.4259490966796875,-0.8777008056640625,-0.0368150062859058,-0.0685859844088554,-0.7804731726646423,Moving 
3,0.073089599609375,-0.424285888671875,-0.84661865234375,-0.0741831511259079,0.2363715171813964,-0.6039162278175354,Moving 
4,0.0778045654296875,-0.40130615234375,-0.8416290283203125,0.0139581598341465,-0.3371066451072693,-0.6701551675796509,Moving 
5,0.100067138671875,-0.43017578125,-0.8143157958984375,-0.0975276231765747,-0.3992363512516022,-0.6083597540855408,Moving 
6,0.0361785888671875,-0.4249420166015625,-0.894775390625,0.0487315878272056,-0.1442450582981109,-0.5444233417510986,Moving 
7,0.1010894775390625,-0.4465484619140625,-0.902618408203125,0.5483443140983582,-0.1981524974107742,-0.4710697829723358,Moving 
8,0.1501007080078125,-0.49395751953125,-0.8359222412109375,0.6047972440719604,-0.6554390788078308,-0.3654168546199798,Moving 
9,0.07855224609375,-0.4935760498046875,-0.9247589111328124,0.1439987123012542,-0.5943472385406494,-0.4817152321338653,Moving 
10,0.1436920166015625,-0.4934844970703125,-0.93084716796875,0.1325601786375045,-0.312210351228714,-0.4414295852184295,Moving 
11,0.1553497314453125,-0.5368194580078125,-0.8362884521484375,0.3086838126182556,-0.7240954041481018,-0.5891583561897278,Moving 
12,0.137359619140625,-0.518463134765625,-0.88555908203125,0.5440793037414551,-0.8631406426429749,-0.7162132263183594,Moving 
13,0.129913330078125,-0.5706787109375,-0.8247222900390625,0.1670047044754028,-0.6504744291305542,-0.7617686986923218,Moving 
14,0.118804931640625,-0.5474395751953125,-0.8850860595703125,-0.23019832372665397,-0.5341025590896606,-0.6641100645065308,Moving 
15,0.0763092041015625,-0.535247802734375,-0.9459228515625,0.3862667381763458,-0.4089896380901336,-0.8601264357566833,Moving 
16,0.163055419921875,-0.508270263671875,-0.7378387451171875,0.4920813143253326,-0.3303914964199066,-0.9143856763839722,Moving 
17,0.233184814453125,-0.5322723388671875,-0.6274566650390625,0.2284086793661117,-0.341723769903183,-0.91013103723526,Moving 
18,0.2319183349609375,-0.4710693359375,-0.72247314453125,0.0837968960404396,-0.5683547854423523,-0.7263122200965881,Moving 
19,0.2278900146484375,-0.514312744140625,-0.785919189453125,0.1733637899160385,-0.2829014658927917,-0.7869630455970764,Moving 
20,0.284027099609375,-0.5384521484375,-0.682159423828125,0.0089141326025128,-0.6252061128616333,-0.4958595633506775,Moving 
21,0.220001220703125,-0.578125,-0.6494293212890625,-0.4888594448566437,-0.6438311934471129,-0.1957082450389862,Moving 
22,0.22967529296875,-0.5877532958984375,-0.7445068359375,-0.6807646751403809,-0.4969597160816192,-0.0421479865908622,Moving 
23,0.208251953125,-0.52783203125,-0.868377685546875,-0.4812667667865753,-0.1737084090709686,0.1667016297578811,Moving 
24,0.22479248046875,-0.547119140625,-0.83624267578125,-0.4606986343860626,0.1198025643825531,0.3152857720851898,Moving 
25,0.1842041015625,-0.5144195556640625,-0.8425445556640625,-0.732377827167511,0.5745634436607361,0.4391967952251434,Moving 
26,0.180572509765625,-0.53472900390625,-0.904388427734375,-0.9472541809082032,1.0537350177764893,0.585934579372406,Moving 
27,0.0538177490234375,-0.5516357421875,-0.93218994140625,-0.7526753544807434,0.8857988119125366,0.2971744239330292,Moving 
28,0.0749969482421875,-0.516632080078125,-0.875213623046875,-0.8903722167015076,0.7387968301773071,-0.0246432945132255,Moving 
29,0.1072845458984375,-0.4519500732421875,-0.9786529541015624,-0.7649429440498352,0.7804989814758301,-0.0152503252029418,Moving 
30,0.0363922119140625,-0.4232940673828125,-0.8691864013671875,-0.7867704629898071,0.4291103482246399,-0.3339526653289795,Moving 
31,0.1191253662109375,-0.414459228515625,-0.87841796875,-0.3871788680553436,0.2366500943899154,-0.2492289990186691,Moving 
32,-0.0224609375,-0.34539794921875,-0.58343505859375,-1.0965360403060913,0.0311720333993434,-0.9043125510215759,Moving 
33,-0.8844757080078125,-0.4695281982421875,-1.460235595703125,-0.5710243582725525,0.2896123826503753,-2.769941091537476,Moving 
34,0.8527374267578125,0.3704681396484375,-0.775360107421875,-0.4236298203468323,-1.3890081644058228,-0.1489396840333938,Moving 
35,0.190765380859375,-0.0623626708984375,-0.84381103515625,-0.3915185034275055,-0.21065977215766898,-0.7832458019256592,Moving 
36,0.106201171875,0.029144287109375,-0.5848388671875,0.5939586758613586,-0.4260096251964569,-4.4988131523132315,Moving 
37,0.2813262939453125,-0.4741363525390625,-0.814361572265625,0.8203316330909729,5.36029577255249,-1.7005378007888794,Moving 
38,0.0157623291015625,-0.0342254638671875,-0.58416748046875,-0.1362017840147018,1.8206980228424072,-0.9076878428459167,Moving 
39,0.5329742431640625,0.1084136962890625,-0.6612701416015625,2.4734480381011963,2.3452582359313965,-0.4256471693515777,Moving 
40,0.636383056640625,0.09832763671875,-0.4187469482421875,0.0143496440723538,2.3592875003814697,-2.8248817920684814,Moving 
41,0.5901336669921875,0.1289825439453125,-0.439453125,-0.7710900306701659,1.7459415197372437,-2.35465669631958,Moving 
42,0.512939453125,0.5441131591796875,-0.659942626953125,-1.7156994342803955,2.5901401042938232,-3.3279104232788086,Moving 
43,0.6685333251953125,0.6363677978515625,-0.3453826904296875,-1.9278993606567385,2.773732662200928,-3.3794832229614262,Moving 
44,0.8750152587890625,0.7467041015625,-0.8725128173828125,-0.3745110332965851,3.5771079063415527,-3.269693851470948,Moving 
45,0.697784423828125,0.80926513671875,-0.555999755859375,1.1425880193710327,3.9469094276428223,-3.41671085357666,Moving 
46,0.8966522216796875,1.05206298828125,-0.3436737060546875,1.189866542816162,3.7132647037506095,-5.100299835205078,Moving 
47,1.6564178466796875,1.0464019775390625,-0.122589111328125,0.8725519776344299,2.544621467590332,-3.9360525608062735,Moving 
48,1.481231689453125,1.029815673828125,-0.134552001953125,-0.6051239967346191,-0.0778697654604911,-2.8020145893096924,Moving 
49,1.6065216064453125,1.199859619140625,-0.47381591796875,-1.8179328441619875,-2.7054214477539062,-2.208181858062744,Moving 
50,1.64569091796875,0.7858734130859375,-0.8190155029296875,-0.5889341235160828,-3.72733473777771,-0.5651882886886597,Moving 
51,1.61029052734375,0.1817626953125,-0.42388916015625,0.4339724779129028,-4.452951908111572,1.6297425031661987,Moving 
52,1.2035675048828125,0.4047698974609375,-0.043548583984375,-0.0365723930299282,-3.030472755432129,3.6133756637573238,Moving 
53,0.6602935791015625,0.9028472900390624,-0.08245849609375,0.312465488910675,0.6069088578224182,3.5198721885681152,Moving 
54,0.4409637451171875,0.909454345703125,-0.8086090087890625,2.700551271438598,4.2117862701416025,2.3894827365875244,Moving 
55,0.8110809326171875,0.729278564453125,-0.58447265625,3.1718823909759517,3.1820383071899414,1.896307587623596,Moving 
56,0.7498016357421875,0.542694091796875,-0.2385101318359375,1.5208231210708618,0.4020627439022064,1.1272412538528442,Moving 
57,0.624847412109375,0.400848388671875,-0.0815277099609375,1.2533032894134521,1.789637327194214,0.3364800214767456,Moving 
58,0.61370849609375,0.3279876708984375,0.0108184814453125,1.4548169374465942,1.8831340074539185,0.994563102722168,Moving 
59,0.4577484130859375,0.2978973388671875,-0.2018585205078125,2.287262439727783,3.4444506168365483,0.6987495422363281,Moving 
60,0.5606689453125,0.16412353515625,-0.0158538818359375,2.0241842269897456,2.4779181480407715,0.4162901639938354,Moving 
61,0.6343536376953125,0.194000244140625,0.183807373046875,1.2342026233673096,1.0838042497634888,0.119983397424221,Moving 
62,1.132720947265625,0.076324462890625,0.3581085205078125,0.3401748836040497,0.7538724541664124,0.6276809573173523,Moving 
63,1.2089080810546875,-0.046112060546875,0.5771942138671875,-0.5766209959983826,1.0702255964279177,1.0706850290298462,Moving 
64,1.1671142578125,0.2149810791015625,0.0857086181640625,0.34672757983207697,0.7237640619277954,1.1641560792922974,Moving 
65,1.1787872314453125,0.081024169921875,0.2339324951171875,-0.0406057499349117,0.0223479159176349,1.4596282243728638,Moving 
66,0.997650146484375,0.223907470703125,0.0824127197265625,-0.9036350250244141,-0.5393393635749817,0.9815391898155212,Moving 
67,1.08770751953125,0.1996917724609375,-0.3070220947265625,0.0208690632134675,-0.6746655106544495,0.3885581195354461,Moving 
68,0.7679290771484375,0.3416595458984375,-0.1903533935546875,1.130910873413086,-0.2161080688238144,0.3661614656448364,Moving 
69,0.8432769775390625,0.5296478271484375,-0.2828216552734375,1.6709767580032349,1.2473580837249756,-0.2436355650424957,Moving 
70,1.0354461669921875,0.3028106689453125,-0.155792236328125,1.0541145801544192,0.1715895980596542,-0.1870050430297851,Moving 
71,0.8486785888671875,0.271270751953125,-0.30322265625,0.1012507230043411,-0.93561053276062,-1.094547986984253,Moving 
72,0.688232421875,0.09173583984375,0.08013916015625,0.2994423806667328,0.2379526495933532,-1.7360286712646484,Moving 
73,0.745208740234375,0.030609130859375,-0.13873291015625,0.9978377223014832,0.7347840070724487,-3.0559165477752686,Moving 
74,0.86865234375,0.0823211669921875,0.2559051513671875,0.2393055260181427,0.4407867193222046,-4.345694065093993,Moving 
75,0.8611907958984375,0.480010986328125,0.0980072021484375,-0.5042868852615356,0.3582082092761993,-5.526961326599121,Moving 
76,0.7878265380859375,0.5989227294921875,-0.0125274658203125,0.4434764981269836,0.6244542598724365,-5.965261459350586,Moving 
77,0.9541015625,0.9943389892578124,0.3376922607421875,0.3303542137145996,-1.6481717824935913,-0.5346096158027649,Moving 
78,0.6293487548828125,0.8282928466796875,0.3294219970703125,0.0027523769531399,-0.5022306442260742,0.5173885226249695,Moving 
79,0.602630615234375,0.8178863525390625,0.046966552734375,0.0722006931900978,-0.5461013913154602,-0.5641803145408629,Moving 
80,0.7960205078125,0.936767578125,0.163238525390625,0.1669375896453857,-0.7356511354446411,-1.189056158065796,Moving 
81,0.71875,0.822509765625,0.3551788330078125,-0.8460023999214172,-0.2806396484375,-0.4288946390151977,Moving 
82,0.7067108154296875,0.759246826171875,0.233123779296875,-0.7053837776184082,0.9555912017822266,-0.7933011054992676,Moving 
83,0.6722869873046875,0.8228302001953125,0.2373809814453125,-0.2992151975631714,2.0885159969329834,-1.4406969547271729,Moving 
84,0.3024139404296875,0.6868743896484375,0.210540771484375,-0.5144854187965393,1.9931217432022093,-1.836100101470948,Moving 
85,0.1679840087890625,0.6563262939453125,0.1657257080078125,-1.1074239015579224,1.1770130395889282,-2.9143776893615723,Moving 
86,0.008270263671875,0.4054107666015625,0.172698974609375,-1.925168514251709,-1.6480681896209717,-3.762104988098145,Moving 
87,0.060699462890625,0.323516845703125,0.3376617431640625,-2.015857458114624,-5.2217230796813965,-2.355277299880981,Moving 
88,-0.026519775390625,0.8838653564453125,0.5991973876953125,1.2374087572097778,-2.4727766513824463,-0.527657151222229,Moving 
89,-0.301666259765625,2.804351806640625,-0.3406982421875,2.3744890689849854,5.107953071594238,1.0688908100128174,Moving 
90,0.1439666748046875,1.278106689453125,0.03302001953125,-1.517137885093689,-0.883010745048523,1.791124939918518,Moving 
91,-0.1474761962890625,0.2177886962890625,-0.1418304443359375,0.1678715646266937,2.0463428497314453,0.7620185613632202,Moving 
92,-0.299896240234375,0.4195709228515625,-0.1848297119140625,1.7861632108688354,0.2567878365516662,-0.0929469838738441,Moving 
93,-0.284912109375,0.7767181396484375,-0.136993408203125,2.2071638107299805,-0.9091153144836426,-0.321433424949646,Moving 
94,-0.261627197265625,1.463836669921875,0.3055419921875,1.3350719213485718,-0.4630017280578613,-0.7339664101600647,Moving 
95,1.0889892578125,1.791473388671875,1.5054168701171875,-1.1885091066360474,-0.5711804032325745,1.3876733779907229,Moving 
96,0.3271331787109375,0.385528564453125,0.3225250244140625,0.4238215684890747,0.6148954033851624,-0.2091079503297805,Moving 
97,-0.5096588134765625,1.98199462890625,-0.3905487060546875,0.4781655073165893,-1.6803011894226074,-0.9690651893615724,Moving 
98,-0.075103759765625,1.0160064697265625,-0.3171844482421875,-0.3810173869132995,-0.7986189126968384,0.6658912301063538,Moving 
99,-0.1134796142578125,0.2418060302734375,-0.2610321044921875,0.4911252558231354,0.9872530102729796,-0.1930157989263534,Moving 
100,-0.0975341796875,0.915008544921875,-0.306793212890625,0.526901364326477,2.2666890621185303,-1.564361333847046,Moving 
101,0.172332763671875,1.364532470703125,-0.625518798828125,1.2688337564468384,0.0733953863382339,-0.1711690872907638,Moving 
102,0.122894287109375,0.8515777587890625,-0.4356689453125,1.8645787239074707,-1.7913553714752195,0.251044750213623,Moving 
103,0.096466064453125,0.7198486328125,-0.1023712158203125,1.4455115795135498,-2.2055716514587402,0.0418782085180282,Moving 
104,0.03839111328125,1.09027099609375,-0.032318115234375,0.5920939445495605,-3.0959966182708736,-0.1626941114664077,Moving 
105,0.263427734375,1.1472015380859375,0.0929107666015625,1.196596384048462,-4.513986110687256,-0.3435682952404022,Moving 
106,0.2868194580078125,0.9460601806640624,0.0792236328125,0.0408848486840724,-0.1982337236404419,-0.2487253993749618,Moving 
107,0.1619720458984375,1.0247650146484375,0.0029296875,0.2102600336074829,0.9828869700431824,-0.0733160227537155,Moving 
108,0.03533935546875,1.0304412841796875,-0.0517730712890625,-0.1221988797187805,0.6921254396438599,-0.2115023881196975,Moving 
109,-0.0018157958984375,1.01806640625,-0.17657470703125,0.1932501494884491,-0.9658435583114624,-0.1749164164066314,Moving 
110,0.1538238525390625,1.0227508544921875,-0.136749267578125,0.0324290469288826,-1.4307537078857422,-0.3981740176677704,Moving 
111,0.273773193359375,0.9490509033203124,-0.154266357421875,-0.2158955484628677,-0.0580329410731792,-0.3282844126224518,Moving 
112,0.3297119140625,0.987640380859375,-0.07720947265625,0.1737680584192276,-1.2458072900772097,-0.1766687780618667,Moving 
113,0.21490478515625,1.280487060546875,0.0278472900390625,-0.0452242046594619,-1.9889779090881348,0.4622464776039123,Moving 
114,0.2328948974609375,1.3539886474609375,0.3515777587890625,-1.0585961341857908,-1.589835524559021,0.6950418949127197,Moving 
115,0.186859130859375,0.8364715576171875,0.533111572265625,-2.736482858657837,0.4389797449111938,1.6254161596298218,Moving 
116,-0.2623138427734375,1.0686798095703125,0.068145751953125,-3.0116667747497563,1.6825695037841797,1.7990922927856443,Moving 
117,-0.357086181640625,1.7469635009765625,-0.4050445556640625,-2.663373708724976,-1.3337888717651367,0.7919955849647522,Moving 
118,-0.229736328125,1.2665863037109375,-0.0971832275390625,-0.6200960278511047,-1.7296386957168581,0.7063214778900146,Moving 
119,0.25030517578125,0.999481201171875,0.416107177734375,-1.151535153388977,0.9152304530143738,1.0057867765426636,Moving 
120,0.1843719482421875,0.73712158203125,-0.192962646484375,-0.8227940201759338,1.0429879426956177,0.9802789688110352,Moving 
121,-0.02032470703125,0.6602020263671875,-0.09307861328125,-1.1183004379272459,0.862240195274353,0.2404805123805999,Moving 
122,-0.197296142578125,0.546722412109375,-0.0717010498046875,-0.298413336277008,0.4808832705020904,-0.0647124201059341,Moving 
123,-0.218902587890625,0.5441436767578125,-0.0885009765625,0.9239978194236756,-0.2522884309291839,-0.3850017488002777,Moving 
124,-0.1771697998046875,0.6696319580078125,-0.0233154296875,1.5628275871276855,-1.1650288105010986,-0.8131685256958008,Moving 
125,-0.0411376953125,1.031280517578125,0.327239990234375,1.5613492727279663,-1.1637656688690186,-0.7750477790832521,Moving 
126,0.9263458251953124,1.894989013671875,1.3865203857421875,0.3163260221481323,1.3619613647460938,-0.0070033147931098,Moving 
127,0.552276611328125,0.530670166015625,0.9242706298828124,-0.4656720757484436,-0.7227062582969666,-0.0100414492189884,Moving 
128,0.1092529296875,1.717620849609375,-0.3692474365234375,1.7774738073349,0.23642398416996,-0.4650920629501343,Moving 
129,0.159912109375,1.216400146484375,-0.1900177001953125,-0.128737211227417,-0.5916968584060669,0.7401942014694214,Moving 
130,-0.267730712890625,0.24609375,-0.02423095703125,0.6081898212432861,-0.8863692283630371,-0.0056738648563623,Moving 
131,-0.244873046875,1.077911376953125,-0.0097808837890625,0.8661044836044312,-0.93883216381073,-0.7797165513038635,Moving 
132,-0.0704345703125,1.03985595703125,-0.237030029296875,0.0324295796453952,-1.0651123523712158,-0.4510310888290405,Moving 
133,0.103240966796875,0.973724365234375,-0.2317962646484375,-0.1213799566030502,0.018631475046277,-0.69345623254776,Moving 
134,0.276458740234375,1.056976318359375,-0.313629150390625,0.46679195761680603,1.4954242706298828,-0.5504083037376404,Moving 
135,0.2987060546875,0.9808502197265624,-0.1930694580078125,0.8855657577514648,1.391768217086792,-0.2058213353157043,Moving 
136,0.1502685546875,0.9253692626953124,0.0161590576171875,0.7625695466995239,-2.586670398712158,0.165646493434906,Moving 
137,0.0883026123046875,1.051788330078125,0.0635986328125,0.0714243799448013,-3.9143705368041988,0.1770051419734954,Moving 
138,0.190643310546875,1.07415771484375,0.1156158447265625,0.17153100669384,-2.664824247360229,-0.0675561428070068,Moving 
139,0.2128448486328125,0.963226318359375,0.055023193359375,-0.2465397417545318,0.8396877646446228,0.0503968596458435,Moving 
140,0.02984619140625,1.00445556640625,-0.08111572265625,-0.2744936048984527,1.014597773551941,-0.0751685202121734,Moving 
141,0.0562744140625,0.955322265625,-0.1463775634765625,-0.0382326059043407,-0.3302237093448639,-0.1163835972547531,Moving 
142,0.070220947265625,0.9816131591796876,-0.126922607421875,0.217912882566452,-1.4463531970977783,-0.2136744707822799,Moving 
143,0.1266326904296875,1.003021240234375,-0.085968017578125,0.2717193961143493,-1.4722579717636108,-0.3817106187343597,Moving 
144,0.23516845703125,1.014404296875,-0.0483245849609375,0.2876126170158386,-1.0910822153091428,-0.4220894575119018,Moving 
145,0.29071044921875,0.9804534912109376,-0.0299224853515625,0.0155845526605844,-0.5194120407104492,-0.3069205284118652,Moving 
146,0.1726226806640625,0.998443603515625,-0.02130126953125,-0.1618935614824295,-0.5681513547897339,-0.1603172421455383,Moving 
147,0.1325836181640625,1.1739044189453125,-0.0418243408203125,-0.4628376960754394,-0.4534734785556793,0.2584973275661468,Moving 
148,-0.02606201171875,1.1732635498046875,-0.079254150390625,-0.3704622089862823,-1.413068175315857,0.1879262328147888,Moving 
149,-0.0905914306640625,0.9681243896484376,-0.0446624755859375,-0.7159202694892883,-1.3458266258239746,0.0789534077048301,Moving 
150,-0.1877899169921875,0.864288330078125,-0.03692626953125,-0.8619629740715027,-0.8006540536880493,-0.0413948446512222,Moving 
151,-0.1338043212890625,0.9898834228515624,-0.032989501953125,-0.8078973293304443,-0.5410528779029846,-0.1427278518676757,Moving 
152,-0.0810089111328125,1.04400634765625,-0.01519775390625,-0.8774124979972839,-0.9760035276412964,-0.1001798659563064,Moving 
153,-0.141876220703125,1.01361083984375,-0.037353515625,-0.8832035660743713,-1.302551031112671,-0.1623849123716354,Moving 
154,-0.1347198486328125,0.9715118408203124,-0.0342559814453125,-0.5631986260414124,-1.1497126817703247,-0.2622782289981842,Moving 
155,-0.056121826171875,0.952972412109375,0.033477783203125,-0.13124057650566098,-0.756290853023529,-0.2022705525159835,Moving 
156,-0.1451416015625,0.9576873779296876,-0.041351318359375,-0.21570539474487302,-1.3728001117706299,-0.0923059582710266,Moving 
157,-0.2894744873046875,0.95159912109375,-0.0531158447265625,0.0983840972185134,-1.4087980985641482,-0.3375753760337829,Moving 
158,-0.264617919921875,0.956756591796875,0.018463134765625,0.3667942583560943,-0.6907752752304077,-0.6169055700302124,Moving 
159,-0.020050048828125,0.9522857666015624,0.05828857421875,0.5028167963027954,-0.5832834243774414,-0.6212997436523438,Moving 
160,0.126129150390625,1.010955810546875,0.1095123291015625,0.6597163677215576,-0.9116373062133788,-0.3666613399982452,Moving 
161,0.2147674560546875,1.0060577392578125,0.1240997314453125,0.5462510585784912,-1.8644359111785889,0.0628322288393974,Moving 
162,0.0754547119140625,0.9299468994140624,0.03948974609375,0.3342480063438415,-2.1822860240936284,0.3446146547794342,Moving 
163,-0.25054931640625,1.0001373291015625,0.0553741455078125,0.609921932220459,-1.553802728652954,0.0403069444000721,Moving 
164,-0.3560943603515625,1.0205230712890625,0.17779541015625,0.4155535399913788,-0.9818507432937622,-0.3504682779312134,Moving 
165,-0.25335693359375,1.0562591552734375,0.178985595703125,-0.1748287975788116,-1.3149731159210205,-0.5250227451324463,Moving 
166,-0.09039306640625,1.003814697265625,0.0154571533203125,-0.4894384145736694,-1.6727263927459717,-0.5366961956024171,Moving 
167,0.06622314453125,0.9467315673828124,-0.0823974609375,-0.4597401618957519,-1.551064133644104,-0.3616500794887543,Moving 
168,0.0341949462890625,0.9439849853515624,-0.0778350830078125,0.2173216640949249,-1.3580124378204346,-0.0842437744140625,Moving 
169,-0.0837554931640625,0.925567626953125,0.1718902587890625,0.5649992227554321,-0.6051817536354065,0.1406615078449249,Moving 
170,0.08648681640625,0.88836669921875,0.1201934814453125,0.0227702930569648,-1.7316845655441284,0.5670703649520874,Moving 
171,0.0389251708984375,1.017974853515625,-0.0692901611328125,0.3868459761142729,-1.5622422695159912,0.6721003651618958,Moving 
172,-0.033416748046875,0.9886474609375,0.026947021484375,1.0438371896743774,-0.5674881935119629,0.6117531061172485,Moving 
173,-0.1361236572265625,1.0815582275390625,0.0184173583984375,1.0339003801345823,-0.8671547770500183,0.6243174076080322,Moving 
174,-0.281829833984375,1.38360595703125,0.1741790771484375,1.034687876701355,-1.130616307258606,0.1729653924703598,Moving 
175,0.1449127197265625,1.0189361572265625,0.369110107421875,-0.065698854625225,-1.895059585571289,0.3767278492450714,Moving 
176,-0.0370330810546875,0.8210906982421875,-0.1881103515625,-1.3101162910461426,-2.761835813522339,0.6489322185516357,Moving 
177,-0.085784912109375,0.8748321533203125,-0.394378662109375,-0.0949448868632316,-1.7406351566314695,0.0353598557412624,Moving 
178,0.0121307373046875,1.02093505859375,-0.3012542724609375,0.2500548362731933,0.4834372401237488,-0.0636420920491218,Moving 
179,0.2327117919921875,1.057891845703125,-0.28875732421875,-0.1487311571836471,0.757114827632904,-0.1171407401561737,Moving 
180,0.4488525390625,0.988311767578125,-0.2461700439453125,0.5346375703811646,-1.3804236650466921,-0.0024786039721220003,Moving 
181,0.4708251953125,0.8916168212890625,-0.0601654052734375,0.0163464825600385,-1.6646267175674438,0.645177960395813,Moving 
182,0.1595306396484375,0.9818115234375,-0.1368560791015625,0.0877266526222229,-1.9443978071212769,0.6290215849876404,Moving 
183,0.0466461181640625,0.93621826171875,-0.17218017578125,0.3051593899726867,-1.4091893434524536,0.4088916182518005,Moving 
184,-0.0057525634765625,0.98077392578125,-0.141448974609375,0.2516292929649353,-1.1043775081634521,0.1256410181522369,Moving 
185,0.098419189453125,1.02813720703125,-0.1324462890625,0.3043740093708038,-1.3739181756973269,-0.0277591925114393,Moving 
186,0.2570037841796875,1.0103607177734375,-0.05859375,0.2341563105583191,-1.9589775800704958,0.1020560637116432,Moving 
187,0.2522125244140625,0.96124267578125,-0.0310211181640625,-0.0065047708339989,-2.1656417846679688,0.2433838993310928,Moving 
188,0.1231842041015625,0.9665679931640624,-0.0697784423828125,0.0420044399797916,-1.3771770000457764,0.0990048795938491,Moving 
189,0.1374664306640625,0.9719390869140624,-0.1136932373046875,0.1008563041687011,-0.8903474807739258,-0.1030915006995201,Moving 
190,0.157012939453125,0.9599761962890624,-0.149017333984375,0.1866830587387085,-0.9305771589279176,-0.2044050693511963,Moving 
191,0.1597442626953125,1.039825439453125,-0.0976104736328125,0.207545205950737,-1.7623233795166016,-0.2160542607307434,Moving 
192,0.2223052978515625,1.022735595703125,-0.0726318359375,0.1681053787469864,-1.7986587285995483,-0.2704506516456604,Moving 
193,0.291656494140625,0.9681396484375,0.006011962890625,0.1505748629570007,-2.0123395919799805,-0.2291266620159149,Moving 
194,0.271514892578125,0.999359130859375,0.090911865234375,-0.147341251373291,-1.7572942972183228,0.0052738580852746,Moving 
195,0.4323883056640625,1.1753387451171875,0.0722808837890625,-0.621649444103241,-0.7763364911079407,0.1848143190145492,Moving 
196,0.542144775390625,1.155731201171875,0.181915283203125,-1.301365852355957,0.2641024887561798,0.9111539721488952,Moving 
197,-0.1157073974609375,1.04241943359375,0.4633026123046875,-1.940106987953186,1.0993033647537231,1.3560107946395874,Moving 
198,-0.3076324462890625,1.3462371826171875,0.0697021484375,-3.200546741485596,0.7694114446640015,0.786172091960907,Moving 
199,-0.2092742919921875,1.429840087890625,-0.5672149658203125,-2.517506599426269,-2.164902210235596,0.3692765831947326,Moving 
200,0.17327880859375,1.1085968017578125,-0.2620086669921875,-0.3583150207996368,0.2899039983749389,0.5442159175872803,Moving 
201,0.4736785888671875,0.9727783203125,0.467132568359375,-0.6086404323577881,-0.4427433311939239,1.0240285396575928,Moving 
202,0.15771484375,0.84136962890625,0.040191650390625,-1.0871191024780271,1.1106462478637695,0.9733078479766846,Moving 
203,-0.1019439697265625,0.7460784912109375,-0.127166748046875,-0.5507177114486694,1.0030550956726074,0.7976737022399902,Moving 
204,-0.14215087890625,0.6589813232421875,-0.1225433349609375,0.2600640654563904,0.5114454627037048,0.4668161869049072,Moving 
205,-0.10211181640625,0.6913299560546875,-0.1076507568359375,0.7253326773643494,0.2753804326057434,-0.0939762964844703,Moving 
206,-0.1504058837890625,0.6842041015625,-0.049041748046875,1.1891010999679563,0.3245964646339416,-0.5960082411766052,Moving 
207,-0.2714996337890625,0.964508056640625,0.1350250244140625,1.3908175230026243,0.3910207450389862,-1.3012466430664062,Moving 
208,0.750396728515625,1.597686767578125,1.635009765625,-0.3420673310756683,2.3523855209350586,-0.2582366168498993,Moving 
209,0.900146484375,0.976409912109375,0.7076873779296875,0.1860380470752716,0.7326595783233643,0.6484459042549133,Moving 
210,0.010467529296875,0.773529052734375,0.0988616943359375,0.2935770153999328,-0.5952937602996826,0.7252594232559204,Moving 
211,-0.203765869140625,1.1611175537109375,-0.4530792236328125,-0.0680038183927536,-2.472370147705078,-0.0306561794131994,Moving 
212,-0.4091644287109375,1.410430908203125,1.284759521484375,0.0635022744536399,3.443654775619507,-0.4120480120182037,Moving 
213,0.312774658203125,1.0299835205078125,-0.438812255859375,0.8000319600105286,2.2473015785217285,-0.0350538566708564,Moving 
214,0.0707855224609375,0.7111358642578125,-0.3295135498046875,0.2388168424367904,0.0332964360713958,0.0519641302525997,Moving 
215,-0.039093017578125,0.8784942626953125,-0.272125244140625,0.8540315628051758,-1.8613905906677248,0.0698826760053634,Moving 
216,0.0394287109375,1.0664215087890625,-0.1014251708984375,0.4916799962520599,-0.7087036371231079,-0.2290094792842865,Moving 
217,0.1605224609375,0.937225341796875,-0.171417236328125,0.8159981369972229,1.2742905616760254,-0.3048131763935089,Moving 
218,0.3006744384765625,1.048004150390625,-0.0838470458984375,1.2024002075195312,-0.044996503740549004,0.0318599268794059,Moving 
219,0.1082305908203125,0.924560546875,0.027923583984375,0.4352324306964874,-1.4381977319717407,0.2395838350057602,Moving 
220,0.028228759765625,0.9786834716796876,-0.014678955078125,0.2037038654088974,-1.4845527410507202,-0.0445879735052585,Moving 
221,0.0880126953125,1.04058837890625,-0.0132598876953125,0.2314326912164688,-0.2925319969654083,-0.3604993224143982,Moving 
222,0.2801513671875,0.9906005859375,-0.09124755859375,0.1659042835235595,0.4759010374546051,-0.1823141425848007,Moving 
223,0.24530029296875,0.96734619140625,-0.152496337890625,0.3388936519622803,0.0845383182168006,-0.0776029154658317,Moving 
224,0.0966339111328125,0.9768524169921876,-0.1147308349609375,0.44627922773361206,-0.8638122677803041,-0.0502738244831562,Moving 
225,0.0447845458984375,0.975067138671875,-0.0702972412109375,0.311308354139328,-1.0810884237289429,-0.1155156791210174,Moving 
226,0.0625457763671875,1.0174102783203125,-0.0413970947265625,0.2214399725198745,-0.7218311429023743,-0.320798248052597,Moving 
227,0.19110107421875,0.999725341796875,-0.089996337890625,0.0162729788571596,-0.2287399768829345,-0.3546475768089294,Moving 
228,0.17608642578125,1.00238037109375,-0.1577606201171875,0.0961579605937004,-0.094480961561203,-0.3534227907657623,Moving 
229,0.1321868896484375,0.9987030029296876,-0.17462158203125,0.1325854808092117,-0.2868959605693817,-0.407765120267868,Moving 
230,0.165740966796875,0.9726104736328124,-0.1593017578125,0.2319538742303848,-0.4514742493629455,-0.4523272514343261,Moving 
231,0.2302093505859375,0.95806884765625,-0.0409088134765625,0.2521922886371612,-0.9063094258308412,-0.4381789565086365,Moving 
232,0.3509521484375,1.09039306640625,0.0076446533203125,-0.1556828022003173,-0.4684614837169647,-0.2852927148342132,Moving 
233,0.434234619140625,1.111419677734375,0.03643798828125,-0.3692118525505066,0.3590465784072876,0.0903698429465293,Moving 
234,0.2994232177734375,1.0678558349609375,0.143951416015625,-0.8089333176612854,1.171052098274231,0.5937802791595459,Moving 
235,-0.0055694580078125,0.9439697265625,0.3012237548828125,-1.4889576435089111,1.2205770015716553,0.8881301283836365,Moving 
236,-0.214569091796875,1.0894775390625,0.24395751953125,-2.2100367546081543,1.2559925317764282,0.6591686010360718,Moving 
237,-0.002227783203125,1.4470672607421875,-0.1398162841796875,-2.631948232650757,-0.5176532864570618,0.5775413513183594,Moving 
238,0.111846923828125,1.2335357666015625,-0.3021087646484375,-1.3581570386886597,-0.8844389915466309,0.6564542651176453,Moving 
239,0.193206787109375,1.1064300537109375,-0.0052490234375,-0.2379523813724517,0.0241617951542139,0.8659145832061768,Moving 
240,0.3324737548828125,0.8880157470703125,0.071075439453125,-0.4389480650424957,1.4782861471176147,1.3719676733016968,Moving 
241,0.216339111328125,0.79833984375,-0.0649566650390625,-0.8279629349708557,2.2641711235046387,1.0108776092529297,Moving 
242,-0.054351806640625,0.8264617919921875,-0.0789947509765625,-0.0963028371334075,1.5047653913497925,0.805525541305542,Moving 
243,-0.228485107421875,0.7419586181640625,-0.0167083740234375,0.4090636670589447,0.6556942462921143,0.5676320195198059,Moving 
244,-0.18853759765625,0.635833740234375,-0.0159149169921875,0.8770583271980286,0.0259517058730125,0.0463600419461727,Moving 
245,-0.196990966796875,0.696685791015625,0.009490966796875,1.289783596992493,0.1267789900302887,-0.5361148118972778,Moving 
246,-0.1129608154296875,1.0546112060546875,0.2251434326171875,1.4131100177764893,0.2944023311138153,-1.1402422189712524,Moving 
247,0.8350677490234375,1.44769287109375,1.174072265625,-0.3765328824520111,1.7780320644378662,-0.19470930099487302,Moving 
248,0.8935089111328125,1.071380615234375,0.6853790283203125,0.5296734571456909,0.7631972432136536,0.4382678866386413,Moving 
249,0.2345428466796875,0.8778076171875,0.2858123779296875,0.1401259452104568,-0.2412783950567245,0.624557614326477,Moving 
250,-0.3585968017578125,1.0810394287109375,-0.05487060546875,0.2438579350709915,-1.0294212102890017,0.0640101432800293,Moving 
251,-0.146759033203125,1.2646331787109375,-0.049560546875,0.690829336643219,0.1205096393823623,-0.4569427669048309,Moving 
252,0.501129150390625,1.0516815185546875,0.160400390625,0.3101450800895691,0.7987715005874634,0.002339054364711,Moving 
253,0.035125732421875,0.567718505859375,-0.306182861328125,-0.009158344939351,0.6808123588562012,-0.42547807097435,Moving 
254,-0.007781982421875,0.788726806640625,-0.386932373046875,0.3610657751560211,-0.0243258457630872,-0.4983107149600982,Moving 
255,0.061553955078125,1.23211669921875,-0.4833984375,0.7525350451469421,0.3994355499744415,-0.5027773976325989,Moving 
256,0.153472900390625,0.9579925537109376,-0.31549072265625,1.2117438316345217,0.7797362804412842,-0.2157679796218872,Moving 
257,0.1483306884765625,0.8802337646484375,-0.107452392578125,1.2451225519180298,-0.8533937335014343,-0.1007532402873039,Moving 
258,0.09686279296875,1.023345947265625,0.167755126953125,0.8875514268875122,-3.467331647872925,-0.2549595832824707,Moving 
259,0.2616119384765625,1.04656982421875,0.1814117431640625,-0.0090773841366171,-1.7971445322036743,-0.3734265863895416,Moving 
260,0.3783721923828125,0.954498291015625,0.0462646484375,0.0853756144642829,0.7860554456710815,-0.21491870284080497,Moving 
261,0.1925048828125,0.96490478515625,-0.1383209228515625,0.3059599101543426,2.1869668960571294,-0.1415725797414779,Moving 
262,0.1188812255859375,0.978485107421875,-0.2187347412109375,0.7675925493240356,0.7950060367584229,-0.2175150066614151,Moving 
263,0.0701446533203125,1.0414581298828125,-0.2098236083984375,0.7660561800003052,-1.5957062244415283,-0.2384248226881027,Moving 
264,-0.090728759765625,1.1593475341796875,-0.000396728515625,1.1494001150131226,-2.1733636856079097,-0.3682358264923095,Moving 
265,0.215423583984375,1.035369873046875,0.3002166748046875,-0.4123417437076568,0.0586475990712642,-0.9000517725944519,Moving 
266,0.392974853515625,0.964996337890625,-0.1100616455078125,-1.011813759803772,0.7756541967391968,-0.5088086128234863,Moving 
267,0.5110626220703125,1.274383544921875,-0.2246246337890625,-0.4057174026966095,0.9802080988883972,-0.2004529386758804,Moving 
268,0.6445465087890625,1.20965576171875,0.0628814697265625,-0.6344779133796692,-0.3129853308200836,0.4446602761745453,Moving 
269,0.1367034912109375,0.799072265625,0.455657958984375,-1.6634104251861572,0.5922989845275879,1.593592405319214,Moving 
270,-0.427886962890625,1.2104339599609375,0.2313995361328125,-2.932307004928589,1.9003119468688965,0.9670822024345398,Moving 
271,-0.2162628173828125,1.575714111328125,-0.390655517578125,-2.5894954204559326,-1.2475149631500244,0.5045768618583679,Moving 
272,0.1560211181640625,1.104156494140625,-0.2232818603515625,-1.0376498699188232,0.36708718538284296,0.5901860594749451,Moving 
273,0.2638092041015625,0.94732666015625,0.0191802978515625,-0.2998610138893127,1.3915051221847534,0.8106657266616821,Moving 
274,0.38726806640625,0.8154754638671875,-0.05999755859375,-0.0669204443693161,1.7304331064224243,1.5752893686294556,Moving 
275,0.267730712890625,0.84600830078125,-0.186492919921875,-0.2523702085018158,2.457947015762329,1.6027417182922363,Moving 
276,-0.0703125,0.8448486328125,-0.247772216796875,0.1880093216896057,1.7895326614379885,0.8653571605682373,Moving 
277,-0.3036956787109375,0.72991943359375,-0.14337158203125,0.8104198575019836,1.3425586223602295,0.63838130235672,Moving 
278,-0.3828277587890625,0.667572021484375,-0.0958099365234375,1.3936095237731934,0.2114991992712021,0.23723012208938601,Moving 
279,-0.3876495361328125,0.813751220703125,-0.053070068359375,1.6737672090530396,-1.0637350082397459,-0.7549984455108643,Moving 
280,0.1059417724609375,1.4791107177734375,1.0478973388671875,-0.4881723523139953,1.0669987201690674,-0.8021243810653687,Moving 
281,1.4271392822265625,1.446502685546875,1.0294647216796875,-0.4570879340171814,2.1505379676818848,1.0410581827163696,Moving 
282,0.324859619140625,0.7533111572265625,0.3131866455078125,0.466682493686676,-0.9871438145637512,0.4629964232444763,Moving 
283,-0.1551361083984375,0.5716400146484375,0.070526123046875,-0.114183560013771,-1.5031017065048218,0.3398289382457733,Moving 
284,-0.1077423095703125,0.8563995361328125,-0.5005340576171875,0.9334725737571716,-0.8178727626800537,-0.7353879809379578,Moving 
285,-0.055450439453125,2.0194549560546875,0.399871826171875,0.795740008354187,2.769026756286621,-1.5349198579788208,Moving 
286,0.1856842041015625,1.0141754150390625,-0.3230133056640625,0.2752038836479187,0.7679944038391113,0.7106986045837402,Moving 
287,-0.18963623046875,0.2656707763671875,-0.4029541015625,0.5507190823554993,-1.3444806337356567,-0.2418847978115081,Moving 
288,-0.2317047119140625,0.7446136474609375,-0.5288543701171875,0.2985270321369171,-2.9294893741607666,-0.2305783480405807,Moving 
289,-0.1468048095703125,1.2963409423828125,-0.6130523681640625,1.0283799171447754,-0.6760093569755554,-0.3025963604450226,Moving 
290,0.016693115234375,0.9678955078125,-0.2065887451171875,1.162842869758606,0.8802328109741211,-0.4996087551116943,Moving 
291,0.1656646728515625,0.9881744384765624,-0.0153350830078125,1.1664762496948242,-1.2775588035583496,-0.7501800060272217,Moving 
292,0.520172119140625,1.0168609619140625,0.1740570068359375,0.4672356247901916,-4.526360988616943,-0.0739578455686569,Moving 
293,0.4041290283203125,0.9539947509765624,0.0031890869140625,-0.7531531453132629,-0.545062243938446,-0.006360693834721999,Moving 
294,0.3468170166015625,0.9599609375,-0.1878509521484375,0.5861143469810486,0.9662268161773682,-0.1684710383415222,Moving 
295,0.1436920166015625,0.94146728515625,-0.09027099609375,0.5676434636116028,1.236515760421753,-0.1729704439640045,Moving 
296,0.05792236328125,0.951080322265625,-0.127197265625,0.5828743577003479,-0.29711821675300604,-0.0406808517873287,Moving 
297,-0.0478668212890625,0.9599456787109376,-0.1945343017578125,0.7661488056182861,-2.7376868724823,-0.2277716398239135,Moving 
298,-0.0720367431640625,1.1523284912109375,0.05584716796875,0.6514328718185425,-1.8571127653121948,-0.5952830910682678,Moving 
299,0.31317138671875,1.02496337890625,0.1045379638671875,-0.612613320350647,-0.2182047665119171,-0.7392370700836182,Moving 
300,0.40057373046875,1.0433502197265625,-0.124847412109375,-0.6262644529342651,0.1291670352220535,-0.6501343250274658,Moving 
301,0.5203857421875,1.0363006591796875,-0.09051513671875,-0.1750293374061584,0.0181438494473695,-0.2034913450479507,Moving 
302,0.6622161865234375,1.32122802734375,0.130523681640625,-0.7352787852287292,-0.6202941536903381,0.5621041059494019,Moving 
303,0.3964996337890625,1.008331298828125,0.4179534912109375,-2.280256986618042,1.0062381029129028,1.7239813804626465,Moving 
304,-0.3164215087890625,1.2309112548828125,0.1668853759765625,-2.8068459033966064,1.7117899656295776,1.736959457397461,Moving 
305,-0.470611572265625,1.6517791748046875,-0.47027587890625,-2.5171358585357666,-1.811431884765625,0.5603903532028198,Moving 
306,0.0493316650390625,1.086334228515625,-0.0759429931640625,-1.1547056436538696,0.606476902961731,0.5432185530662537,Moving 
307,0.361083984375,0.987274169921875,0.1787567138671875,-0.8300727009773254,2.6493496894836426,0.8633648753166199,Moving 
308,0.5950164794921875,0.843505859375,-0.1979827880859375,-0.5752022862434387,1.5821181535720823,1.914697766304016,Moving 
309,0.081634521484375,0.7521514892578125,-0.2025146484375,-0.7301636934280396,2.1086313724517822,1.0495868921279907,Moving 
310,-0.205902099609375,0.7321624755859375,-0.2584075927734375,-0.1123449206352233,1.4591469764709473,0.6311212182044983,Moving 
311,-0.3398895263671875,0.622650146484375,-0.18072509765625,0.8180950880050659,1.0723801851272583,0.5010263323783875,Moving 
312,-0.317535400390625,0.5674896240234375,-0.0810546875,1.6424494981765747,-0.1633567065000534,0.0054051517508924,Moving 
313,-0.386138916015625,0.798370361328125,-0.0514068603515625,2.1270792484283447,-1.1151736974716189,-0.8974333405494691,Moving 
314,0.2742156982421875,1.7227630615234375,1.4449310302734375,-0.8584513068199158,1.0522916316986084,-0.7337751984596252,Moving 
315,1.4522247314453125,1.4590301513671875,0.9733428955078124,-0.3791316151618957,1.2558807134628296,1.465505599975586,Moving 
316,0.19232177734375,0.553070068359375,0.1611175537109375,0.5832130908966064,-0.7150859236717224,0.20993219316005698,Moving 
317,-0.3255767822265625,0.9182281494140624,-0.21685791015625,0.4397898912429809,-3.047062397003174,-0.0893037766218185,Moving 
318,-0.0936737060546875,1.6845245361328125,-0.2011260986328125,0.8359300494194031,-0.4596331119537353,-0.9753896594047546,Moving 
319,0.2946319580078125,1.07769775390625,-0.1816253662109375,-0.0334591567516326,2.758223056793213,0.1864654868841171,Moving 
320,-0.0338134765625,0.4005584716796875,-0.31201171875,0.484616219997406,0.942041277885437,-0.3746830523014068,Moving 
321,-0.0498046875,0.7990570068359375,-0.3816680908203125,0.2630662620067596,-2.20937728881836,-0.4736176431179046,Moving 
322,-0.0097198486328125,1.33856201171875,-0.519256591796875,0.6155513525009155,-1.2661447525024414,-0.2878296673297882,Moving 
323,0.1479339599609375,0.870086669921875,-0.27850341796875,1.1961313486099243,1.2529687881469729,-0.47908377647399897,Moving 
324,0.1820831298828125,0.822418212890625,-0.0769500732421875,1.1378734111785889,0.3791609108448028,-0.5558001399040222,Moving 
325,0.31365966796875,1.0417022705078125,0.061767578125,1.099390983581543,-2.677171230316162,-0.3004083037376404,Moving 
326,0.23211669921875,1.0092620849609375,0.0671539306640625,0.6566686630249023,-1.848759174346924,-0.0816426649689674,Moving 
327,0.34112548828125,1.08660888671875,0.1620941162109375,0.7146110534667969,-0.5255396962165833,-0.1509519666433334,Moving 
328,0.203887939453125,0.980499267578125,0.0951690673828125,0.0004415521107148,0.4468603134155273,0.1470264643430709,Moving 
329,0.1264495849609375,0.98345947265625,-0.067962646484375,-0.0254489015787839,0.1469420492649078,0.1191801875829696,Moving 
330,0.1016845703125,0.970916748046875,-0.1369476318359375,0.0465890727937221,-0.5022596716880798,0.0541543141007423,Moving 
331,0.041595458984375,0.8568878173828125,-0.19952392578125,0.2775700986385345,-1.425608515739441,-0.1575933545827865,Moving 
332,0.040863037109375,0.931396484375,-0.16748046875,0.5527188181877136,-0.7943037748336792,-0.5002444386482239,Moving 
333,0.18096923828125,1.0091705322265625,0.0746917724609375,0.5037225484848022,-0.9112197160720824,-0.7360484600067139,Moving 
334,0.334930419921875,1.0013580322265625,-0.0265350341796875,-0.7071371674537659,-0.2257878482341766,-0.5480964183807373,Moving 
335,0.400970458984375,1.1634521484375,-0.1856842041015625,0.0240033362060785,-0.1176147833466529,-0.574510931968689,Moving 
336,0.343994140625,1.01708984375,0.0179901123046875,0.0401466190814971,-0.7426610589027405,-0.3440857231616974,Moving 
337,0.493682861328125,1.3433837890625,0.14324951171875,-0.7296973466873169,0.2978822886943817,0.1025426164269447,Moving 
338,0.6087493896484375,1.10565185546875,0.2282257080078125,-2.2855172157287598,2.0644760131835938,0.6476125717163086,Moving 
339,0.1841888427734375,0.885772705078125,0.120452880859375,-2.6450977325439453,2.7999138832092285,1.8777467012405402,Moving 
340,-0.38336181640625,1.7218170166015625,-0.038909912109375,-2.4308199882507324,-0.9387376308441162,1.3053960800170898,Moving 
341,-0.2686614990234375,1.5132598876953125,-0.247039794921875,-1.8085016012191768,-2.9294257164001465,0.981414258480072,Moving 
342,0.1478424072265625,0.9049530029296876,0.059417724609375,-0.5612662434577942,2.273162603378296,1.0707161426544192,Moving 
343,0.464599609375,0.9512481689453124,0.1897125244140625,-1.1251059770584106,2.082614660263061,1.2939519882202148,Moving 
344,0.3655548095703125,0.975799560546875,0.0125885009765625,-1.2138671875,1.482928991317749,1.205331802368164,Moving 
345,-0.123077392578125,0.7336883544921875,-0.116729736328125,-0.5032786130905151,1.0846428871154783,0.7823643088340759,Moving 
346,-0.11712646484375,0.6947174072265625,0.0340728759765625,0.0179856587201356,0.336859792470932,0.9335641860961914,Moving 
347,0.0325927734375,0.71514892578125,-0.091705322265625,0.49103790521621704,0.6426860094070435,0.3172458708286285,Moving 
348,-0.0627593994140625,0.685577392578125,-0.222808837890625,1.209913969039917,0.5260917544364929,-0.0485433004796505,Moving 
349,-0.2196044921875,0.6858367919921875,-0.1085357666015625,2.0869269371032715,-0.1720396727323532,-0.5374040603637695,Moving 
350,-0.252288818359375,0.8426055908203125,0.0615234375,2.5156710147857666,-0.687477171421051,-1.251596212387085,Moving 
351,0.2631683349609375,1.6139373779296875,1.1764984130859375,0.3347207307815552,0.450360506772995,-0.9776933193206788,Moving 
352,1.37060546875,1.5071563720703125,1.3314056396484375,-0.5124521255493164,1.0112062692642212,0.9367240071296692,Moving 
353,0.4823150634765625,0.6319427490234375,0.2287750244140625,0.955863356590271,0.4514111280441284,0.0344655662775039,Moving 
354,0.00396728515625,0.892333984375,0.0629730224609375,-0.1181095987558364,-0.5066011548042297,0.3628652691841125,Moving 
355,-0.074249267578125,1.491943359375,-0.248138427734375,0.7915950417518616,-0.3408806324005127,-0.5895237326622009,Moving 
356,0.6463775634765625,1.2747039794921875,0.90814208984375,0.0218608230352401,-0.4373866617679596,0.1174217015504837,Moving 
357,0.02728271484375,0.7178955078125,-0.30059814453125,0.4359815716743469,2.7618985176086426,0.0205193888396024,Moving 
358,-0.16046142578125,0.65869140625,-0.34515380859375,0.6812299489974976,0.2280957549810409,-0.8293240666389465,Moving 
359,-0.049774169921875,1.01361083984375,-0.4994659423828125,0.5543859601020813,-0.8232736587524414,-0.091422326862812,Moving 
360,0.0114593505859375,1.097625732421875,-0.46234130859375,1.039777755737305,0.1022723093628883,-0.2330918461084365,Moving 
361,0.087554931640625,0.9197235107421876,-0.1725921630859375,1.2018707990646362,0.149694412946701,-0.2176500409841537,Moving 
362,0.11114501953125,0.985626220703125,0.0248565673828125,1.451018214225769,-3.0588436126708984,-0.1369876861572265,Moving 
363,0.1484527587890625,0.97900390625,0.203216552734375,-0.0388840176165103,-3.3526201248168945,-0.3209734857082367,Moving 
364,0.344268798828125,0.9926910400390624,-0.0362548828125,-0.6943089962005615,-0.3530818819999695,-0.4480313062667846,Moving 
365,0.432769775390625,0.9670867919921876,-0.1753997802734375,0.4565891027450561,1.7110586166381836,-0.2044277042150497,Moving 
366,0.30474853515625,0.9453582763671876,-0.144073486328125,0.6874191164970398,1.0403833389282229,-0.0722603499889373,Moving 
367,0.1270599365234375,0.9990692138671876,-0.1549224853515625,0.6875213980674744,-1.0352120399475098,0.0523497574031353,Moving 
368,0.01019287109375,0.9907684326171876,-0.171661376953125,0.7359549999237059,-2.8207168579101562,-0.0274324230849742,Moving 
369,-0.138092041015625,1.0390777587890625,0.01007080078125,0.7820122241973877,-2.209545850753784,-0.3393413126468658,Moving 
370,0.25701904296875,1.0504608154296875,0.1999053955078125,-0.3665572106838226,-0.1534739732742309,-0.7425619959831238,Moving 
371,0.364501953125,1.003570556640625,-0.1162261962890625,-0.8114060759544373,0.4968446493148803,-0.5709750652313232,Moving 
372,0.482696533203125,0.979827880859375,-0.123046875,0.0509899482131004,-0.3380534052848816,-0.3834581673145294,Moving 
373,0.6315155029296875,1.33984375,0.1360015869140625,-0.6391514539718628,-0.7881899476051331,0.4157476723194122,Moving 
374,0.6387176513671875,1.1850128173828125,0.423309326171875,-2.2759742736816406,1.1802719831466677,1.3710424900054932,Moving 
375,-0.140350341796875,1.13629150390625,0.1956939697265625,-3.187330484390259,2.5608561038970947,1.9915450811386108,Moving 
376,-0.50164794921875,1.7227783203125,-0.531219482421875,-2.8220229148864746,-1.8724105358123782,0.4764397740364074,Moving 
377,-0.0997772216796875,1.1699676513671875,-0.1728057861328125,-1.4733928442001345,-0.4737537205219269,0.7687422037124634,Moving 
378,0.2695465087890625,0.9688720703125,0.1862945556640625,-0.7963141798973083,3.3722155094146733,0.674846887588501,Moving 
379,0.512939453125,0.826263427734375,-0.132568359375,-0.4806225299835205,0.8493736982345581,1.3802186250686646,Moving 
380,0.318389892578125,0.7840118408203125,-0.1680755615234375,-0.5126204490661621,1.9828549623489382,1.5637557506561282,Moving 
381,-0.0745697021484375,0.6845703125,-0.3126678466796875,0.065896987915039,1.0522055625915527,0.6520802974700928,Moving 
382,-0.3424530029296875,0.60015869140625,-0.2241973876953125,1.13136088848114,0.7926408648490906,0.4088966846466064,Moving 
383,-0.3309173583984375,0.633056640625,-0.10235595703125,1.8544543981552124,0.542519211769104,0.15839630365371699,Moving 
384,-0.3185577392578125,0.818572998046875,-0.0368499755859375,2.272017002105713,-0.1300746500492096,-0.7716501355171204,Moving 
385,0.4888916015625,1.7859039306640625,1.533599853515625,-0.913715124130249,0.2076802253723144,-0.281907320022583,Moving 
386,1.130523681640625,1.2168731689453125,1.0148773193359375,-0.5492119789123535,1.2082042694091797,0.6833823323249817,Moving 
387,0.2902984619140625,0.7478790283203125,0.1490325927734375,1.0282754898071291,-0.5343329310417175,0.2904243767261505,Moving 
388,-0.0367431640625,0.69598388671875,-0.022552490234375,0.1217125877737999,-1.034825325012207,0.2081718444824218,Moving 
389,0.163238525390625,1.2761993408203125,-0.1126861572265625,0.8267546296119691,0.4638693928718567,-0.7800042033195496,Moving 
390,0.674835205078125,1.8216094970703125,0.14208984375,1.011563420295715,0.4929511249065399,-0.0313715040683746,Moving 
391,-0.1790008544921875,0.6958770751953125,-0.296539306640625,-0.0387742929160594,0.1900820583105087,0.5888060331344604,Moving 
392,-0.336273193359375,0.5100860595703125,-0.4359130859375,1.0611330270767212,-0.6545895338058472,-0.7060045599937439,Moving 
393,-0.40155029296875,0.957122802734375,-0.4450531005859375,0.7778962850570679,-1.1874582767486572,-0.3626397252082824,Moving 
394,-0.1888275146484375,1.05706787109375,-0.488006591796875,0.7304188013076782,-1.1765166521072388,-0.6925752758979797,Moving 
395,0.067047119140625,0.926055908203125,-0.2436370849609375,1.2100656032562256,1.180523157119751,-0.7979336380958557,Moving 
396,0.2488555908203125,1.0310821533203125,-0.03228759765625,0.5834698081016539,1.4019012451171875,-0.7708817720413208,Moving 
397,0.5727691650390625,1.0716552734375,0.0606536865234375,1.3800040483474731,-3.7331950664520255,-0.1690912842750549,Moving 
398,0.4434967041015625,0.9866943359375,0.0995635986328125,-0.0899320170283317,-2.4798946380615234,0.3808780908584595,Moving 
399,0.239105224609375,0.9772491455078124,0.012847900390625,-0.3328357338905334,-0.7868666052818298,0.2147101759910583,Moving 
400,0.1192474365234375,0.949615478515625,-0.106781005859375,0.0972029790282249,0.9573035836219788,-0.0019342538435012,Moving 
401,0.055267333984375,0.962890625,-0.124053955078125,0.1687301695346832,0.1976544857025146,-0.0602577477693557,Moving 
402,-0.037750244140625,1.011474609375,-0.2305908203125,0.2080906182527542,-2.065164804458618,-0.2226525098085403,Moving 
403,0.0456695556640625,1.0382537841796875,-0.16717529296875,0.1616980880498886,-1.6661508083343506,-0.5872946381568909,Moving 
404,0.277801513671875,1.0502471923828125,-0.0789031982421875,0.1782360523939132,-0.3897610902786255,-0.7446640729904175,Moving 
405,0.4368743896484375,1.0244293212890625,0.0350799560546875,-0.0187742207199335,-0.8305781483650208,-0.3733911514282226,Moving 
406,0.38800048828125,0.963226318359375,0.0606536865234375,-0.191519096493721,-0.4629953503608703,-0.2208855152130127,Moving 
407,0.46728515625,1.3027191162109375,0.1604766845703125,-0.6612708568572998,0.1912399977445602,0.3205859959125519,Moving 
408,0.4541015625,1.1124114990234375,0.29241943359375,-2.136221170425415,0.7949900627136229,1.0894619226455688,Moving 
409,-0.1253662109375,0.937164306640625,0.2859344482421875,-2.8087377548217773,1.4004714488983154,1.764595627784729,Moving 
410,-0.3658599853515625,1.62841796875,-0.2520751953125,-2.9063024520874023,-0.2923578321933746,0.8848981261253357,Moving 
411,-0.2011566162109375,1.389404296875,-0.306243896484375,-1.4066568613052368,-1.8531340360641482,0.5503092408180237,Moving 
412,0.2815704345703125,1.049560546875,0.2747955322265625,-0.892802894115448,2.228079080581665,0.7971594929695129,Moving 
413,0.3717498779296875,0.8479156494140625,-0.11798095703125,-0.5262576937675476,1.1282130479812622,1.1430034637451172,Moving 
414,0.343170166015625,0.7275238037109375,-0.1715545654296875,-0.3730646669864654,1.065994143486023,1.5104656219482422,Moving 
415,-0.015045166015625,0.638671875,-0.2189788818359375,-0.1689679771661758,1.4200832843780518,0.5753589272499084,Moving 
416,-0.2272796630859375,0.62017822265625,-0.1997833251953125,0.8257788419723511,0.8341923356056213,0.4072103798389435,Moving 
417,-0.230133056640625,0.5984344482421875,-0.101104736328125,1.6045571565628052,0.4780736267566681,0.1843959391117096,Moving 
418,-0.1649169921875,0.6928558349609375,-0.0641632080078125,1.9931060075759888,-0.0589994043111801,-0.5011810660362244,Moving 
419,-0.0001068115234375,1.516632080078125,0.4022064208984375,1.2250207662582395,-0.8009747266769409,-0.7918366193771362,Moving 
420,1.2771148681640625,1.6435089111328125,1.6456298828125,-1.3184932470321655,0.710635781288147,0.782598614692688,Moving 
421,0.5222015380859375,0.6305999755859375,0.277801513671875,0.9758474826812744,0.1755609065294265,0.0852672234177589,Moving 
422,-0.1336517333984375,0.9046478271484376,-0.0960540771484375,-0.1346446275711059,-0.3067982792854309,0.24717970192432395,Moving 
423,0.017364501953125,1.4164581298828125,-0.2092437744140625,0.9454810619354248,0.2622393369674682,-0.8803758025169373,Moving 
424,1.00152587890625,1.3407745361328125,0.876983642578125,-0.3525420725345611,-0.97545063495636,0.8510778546333313,Moving 
425,-0.155242919921875,0.53460693359375,-0.2937774658203125,0.2978716492652893,1.838340163230896,-0.1377429515123367,Moving 
426,-0.25030517578125,0.72314453125,-0.32257080078125,0.6997469067573547,-0.2985810935497284,-0.7221896052360535,Moving 
427,-0.2049560546875,1.23480224609375,-0.5606536865234375,0.2848109602928161,-1.8168047666549685,-0.3199130296707153,Moving 
428,-0.0229644775390625,0.945892333984375,-0.4635162353515625,1.289831280708313,-0.305784672498703,-0.5036245584487915,Moving 
429,0.099609375,0.8701934814453125,-0.1456298828125,1.2322992086410522,0.8428044319152832,-0.6938716769218445,Moving 
430,0.2552337646484375,1.0171051025390625,-0.01934814453125,1.1738321781158447,-1.607926607131958,-0.7680495381355286,Moving 
431,0.444000244140625,1.0307464599609375,0.1118927001953125,0.6614828705787659,-3.6977596282958975,-0.2088637351989746,Moving 
432,0.4713287353515625,0.943145751953125,0.1026458740234375,-0.2186793386936187,-1.8134534358978271,0.0432302951812744,Moving 
433,0.235931396484375,0.9788055419921876,-0.0977630615234375,0.1681748926639557,1.185934066772461,0.0358677208423614,Moving 
434,0.1141510009765625,0.9716796875,-0.11920166015625,0.7028250098228455,1.116809606552124,-0.1286519914865493,Moving 
435,0.0360107421875,1.0021209716796875,-0.1129913330078125,0.3823838531970978,-0.6491521596908569,-0.1284056454896927,Moving 
436,-0.055999755859375,1.0576934814453125,-0.188323974609375,0.3182642459869385,-2.600674867630005,-0.3409096598625183,Moving 
437,0.1904296875,1.02642822265625,0.071502685546875,0.1657418310642242,-0.9274221658706664,-0.7814116477966309,Moving 
438,0.4107818603515625,1.0331573486328125,-0.01556396484375,-0.4561241269111633,0.4701429903507232,-0.47437822818756104,Moving 
439,0.3546295166015625,0.9579010009765624,-0.0900726318359375,-0.2176534980535507,-0.1740231961011886,-0.2685843110084533,Moving 
440,0.49676513671875,1.2879486083984375,0.05859375,-0.4193205833435058,-0.5310060977935791,0.0973726287484169,Moving 
441,0.606658935546875,1.1629486083984375,0.3144683837890625,-1.734935998916626,0.4189565181732178,0.9796115756034852,Moving 
442,-0.09783935546875,0.948211669921875,0.3985443115234375,-2.615823745727539,1.6460574865341189,1.8485687971115112,Moving 
443,-0.3745880126953125,1.5693511962890625,-0.1939239501953125,-2.9214966297149663,-0.0924625545740127,0.9238132834434508,Moving 
444,-0.2703399658203125,1.4638824462890625,-0.3375701904296875,-1.7407312393188477,-1.9239709377288816,0.4805362522602081,Moving 
445,0.2548828125,1.0255279541015625,0.1695709228515625,-0.5517771244049072,1.84871792793274,0.7296701669692993,Moving 
446,0.260986328125,0.8285369873046875,-0.07757568359375,-0.5757381319999695,1.2873846292495728,0.9515836834907532,Moving 
447,0.39825439453125,0.7300262451171875,-0.1727447509765625,-0.2672591209411621,1.5379019975662231,1.60715913772583,Moving 
448,0.046173095703125,0.7097320556640625,-0.214599609375,-0.2736879885196686,1.6128636598587036,0.7433289885520935,Moving 
449,-0.22430419921875,0.666717529296875,-0.18603515625,0.7107154130935669,0.9753454327583312,0.4891678392887115,Moving 
450,-0.2816925048828125,0.6085662841796875,-0.0749664306640625,1.5525009632110596,0.4124645292758941,0.2392504066228866,Moving 
451,-0.20428466796875,0.6461029052734375,-0.0679931640625,2.0157575607299805,-0.3435099720954895,-0.4800446331501007,Moving 
452,-0.17315673828125,1.293243408203125,0.0768890380859375,1.7062524557113647,-1.098233342170715,-1.2107864618301392,Moving 
453,1.536865234375,1.915008544921875,2.0454254150390625,-1.8543126583099363,1.8956795930862433,1.0014278888702393,Moving 
454,0.644439697265625,0.6092681884765625,0.45697021484375,0.3956900835037231,0.4365512132644653,0.3198888003826141,Moving 
455,-0.0611724853515625,0.8636322021484375,-0.074493408203125,0.1795484572649002,-0.5152348279953003,0.4776696264743805,Moving 
456,-0.2845611572265625,1.421417236328125,-0.4474945068359375,0.5569801926612854,-1.5771591663360596,-1.141762375831604,Moving 
457,0.77130126953125,1.4213409423828125,0.8469390869140625,0.2205171883106231,1.1082677841186523,0.4029796719551086,Moving 
458,-0.07916259765625,0.632415771484375,-0.2988739013671875,0.5465075373649597,2.0866413116455083,-0.24811314046382896,Moving 
459,-0.2180023193359375,0.7085418701171875,-0.33685302734375,0.4794483482837677,-1.4988856315612793,-0.6633220314979553,Moving 
460,-0.206756591796875,1.0361480712890625,-0.6035919189453125,0.3966685235500335,-3.680872678756714,-0.1442107111215591,Moving 
461,-0.11553955078125,1.0592498779296875,-0.4662628173828125,1.1864027976989746,-0.5551180839538574,-0.5691718459129333,Moving 
462,0.0839691162109375,0.92828369140625,-0.165740966796875,0.8860933184623718,1.1073458194732666,-0.6717948913574219,Moving 
463,0.263214111328125,1.0101470947265625,-0.038543701171875,0.2679912447929382,-0.1728964149951934,-0.7728956937789917,Moving 
464,0.5617218017578125,1.021942138671875,0.0272064208984375,0.5932822227478027,-3.8603026866912837,-0.2208056151866912,Moving 
465,0.5426788330078125,0.96917724609375,-6.103515625e-05,-0.0614729486405849,-2.1079659461975098,0.1903238743543625,Moving 
466,0.3034820556640625,0.9434814453125,-0.04266357421875,0.3271988928318023,-0.1890210509300232,0.0917000919580459,Moving 
467,0.1324920654296875,0.97735595703125,-0.029327392578125,0.6228955388069153,0.5197808742523193,-0.0529899820685386,Moving 
468,0.035125732421875,1.0216827392578125,-0.0361328125,0.4482422471046448,-0.1429867148399353,-0.1549296677112579,Moving 
469,-0.08966064453125,1.093963623046875,-0.0448455810546875,0.2372799217700958,-2.0991532802581787,-0.49361929297447205,Moving 
470,0.2572784423828125,1.0224761962890625,0.0288848876953125,-0.3096430599689483,-0.8323345184326172,-0.949595868587494,Moving 
471,0.4733734130859375,0.947509765625,-0.0499267578125,-0.1755071133375167,0.15236051380634302,-0.4954438209533691,Moving 
472,0.407867431640625,1.000946044921875,-0.0579833984375,-0.3730068802833557,0.1265243887901306,-0.2918576896190643,Moving 
473,0.52545166015625,1.275115966796875,0.03912353515625,-0.5313912034034729,-0.0866723135113716,0.2509611248970032,Moving 
474,0.44281005859375,1.0060272216796875,0.299774169921875,-1.8526719808578491,0.1366063207387924,1.3207944631576538,Moving 
475,-0.2799224853515625,0.9493255615234376,0.430633544921875,-2.527252435684204,0.9954105019569396,1.8298771381378167,Moving 
476,-0.3041229248046875,1.64483642578125,-0.25640869140625,-2.8567278385162367,-0.5628796219825745,1.0430251359939575,Moving 
477,-0.0813446044921875,1.399932861328125,-0.28179931640625,-1.5200064182281494,-0.4004653990268707,0.4653823375701904,Moving 
478,0.3464202880859375,0.9750823974609376,0.1572265625,-0.4547744393348694,1.5617157220840454,0.7369571328163147,Moving 
479,0.330596923828125,0.803558349609375,-0.077545166015625,-0.3172618448734283,1.7008610963821411,1.2462831735610962,Moving 
480,0.3405303955078125,0.8043975830078125,-0.2176971435546875,-0.2454955130815506,2.6404454708099365,1.4895278215408323,Moving 
481,0.0070343017578125,0.7771148681640625,-0.287322998046875,0.1268679350614547,1.2646715641021729,0.9665170907974244,Moving 
482,-0.2496185302734375,0.6876220703125,-0.2103118896484375,1.0450509786605835,1.1217525005340576,0.4724410474300384,Moving 
483,-0.3057861328125,0.6337890625,-0.07757568359375,1.6340134143829346,0.6828347444534302,0.2637261748313904,Moving 
484,-0.3204193115234375,0.7087860107421875,-0.0573577880859375,2.1866648197174072,-0.4244564771652221,-0.5176942944526672,Moving 
485,-0.1907958984375,1.50592041015625,0.4552459716796875,0.7585404515266418,-1.006719946861267,-1.214733600616455,Moving 
486,1.3450927734375,1.5787200927734375,1.2864837646484375,-1.0117194652557373,2.4689290523529053,0.7795003056526184,Moving 
487,0.3718109130859375,0.688720703125,0.25872802734375,0.9254252910614014,-1.0421167612075806,0.3044725358486175,Moving 
488,-0.121002197265625,0.703216552734375,0.0180206298828125,-0.1673354655504226,-1.3307474851608276,0.3286513984203338,Moving 
489,-0.1248931884765625,1.4351348876953125,-0.3953704833984375,0.465492844581604,-0.9250966906547546,-1.0770329236984253,Moving 
490,0.53546142578125,1.637176513671875,1.0766143798828125,0.2621927261352539,1.3492578268051147,-0.2288137376308441,Moving 
491,0.13812255859375,0.6898040771484375,-0.3144378662109375,0.5931557416915894,2.127493143081665,0.2133628726005554,Moving 
492,-0.1763458251953125,0.5617523193359375,-0.2893829345703125,0.0584023222327232,-0.8730835318565369,-0.4359493553638458,Moving 
493,-0.1363067626953125,0.9518585205078124,-0.75732421875,0.6162381768226624,-3.6046564579010014,-0.0941930785775184,Moving 
494,-0.0948638916015625,1.0931549072265625,-0.5759429931640625,1.5469895601272583,-0.9673187136650084,-0.2431687116622924,Moving 
495,0.0528717041015625,0.921234130859375,-0.1576995849609375,0.9409789443016052,0.0943973436951637,-0.5263255834579468,Moving 
496,0.185791015625,1.0394744873046875,-0.0287628173828125,0.5367467999458313,-1.2058234214782717,-0.4862479269504547,Moving 
497,0.501617431640625,1.0572967529296875,0.0993499755859375,0.6921555399894714,-4.606400489807129,0.0901791602373123,Moving 
498,0.4414825439453125,0.956298828125,0.0251617431640625,-0.4357576072216034,-0.9542335271835328,0.0776601731777191,Moving 
499,0.3358612060546875,0.94305419921875,-0.045013427734375,0.1288549154996872,0.1918210983276367,-0.0715468898415565,Moving 
500,0.1700286865234375,0.9776763916015624,-0.066741943359375,-0.0382571071386337,0.4601556062698364,-0.1140823662281036,Moving 
501,0.084930419921875,0.9654541015625,-0.1101531982421875,0.0084142573177814,-0.3307957649230957,-0.1502424925565719,Moving 
502,0.031890869140625,0.9498443603515624,-0.1650238037109375,0.224858671426773,-0.8512195348739624,-0.3778309226036072,Moving 
503,0.1210784912109375,1.038543701171875,-0.1807098388671875,0.1746218800544738,-0.8687042593955994,-0.7072029709815979,Moving 
504,0.27001953125,1.0450286865234375,-0.1460418701171875,0.1063868924975395,-0.6906407475471497,-0.6584298014640808,Moving 
505,0.281829833984375,0.96075439453125,-0.0098114013671875,0.3772886991500854,-1.7516275644302368,-0.4263491928577423,Moving 
506,0.2767486572265625,1.001617431640625,0.178070068359375,-0.3225626051425934,-1.3227990865707395,-0.2505483329296112,Moving 
507,0.60711669921875,1.35833740234375,0.117889404296875,-1.2019274234771729,0.1101233065128326,0.2686295807361603,Moving 
508,0.5717315673828125,1.0293121337890625,0.225982666015625,-2.164206027984619,0.5231239199638367,1.3880035877227783,Moving 
509,-0.154144287109375,0.95361328125,0.3629302978515625,-2.4733099937438965,1.450167894363403,2.031006097793579,Moving 
510,-0.2718658447265625,1.61724853515625,-0.213775634765625,-2.8592324256896973,-0.2886943817138672,0.8554685711860657,Moving 
511,0.03570556640625,1.2764434814453125,-0.2397613525390625,-1.5107609033584597,-0.3974586725234985,0.4019061625003814,Moving 
512,0.35968017578125,0.977325439453125,0.016693115234375,-0.4967682361602783,2.457965135574341,0.6050137281417847,Moving 
513,0.366302490234375,0.8416900634765625,-0.12823486328125,-0.3581536114215851,1.5685675144195557,1.0687144994735718,Moving 
514,0.3722076416015625,0.856231689453125,-0.12615966796875,-0.430410236120224,1.9717471599578853,1.7002313137054443,Moving 
515,-0.0802001953125,0.8265228271484375,-0.302642822265625,0.0184130948036909,1.5840446949005127,0.8384975790977478,Moving 
516,-0.2614593505859375,0.71917724609375,-0.1821746826171875,0.7977525591850281,1.160680651664734,0.628521740436554,Moving 
517,-0.32415771484375,0.660858154296875,-0.0984954833984375,1.3787044286727903,0.5637712478637695,0.2662814855575561,Moving 
518,-0.3502655029296875,0.7237701416015625,-0.037506103515625,1.8608204126358032,-0.5721719264984131,-0.5882957577705383,Moving 
519,-0.3054351806640625,1.28802490234375,0.40960693359375,0.7968937158584595,-0.4255379736423492,-1.517876386642456,Moving 
520,1.3826141357421875,1.655029296875,1.438201904296875,-1.2133889198303225,2.9625017642974854,0.7549638152122498,Moving 
521,0.4931488037109375,0.7032623291015625,0.3736572265625,0.9713576436042786,-0.2280281037092209,0.3734737336635589,Moving 
522,0.131378173828125,0.630340576171875,-0.014678955078125,0.051939096301794004,-2.216247797012329,0.5223199129104614,Moving 
523,-0.076080322265625,1.392364501953125,-0.468963623046875,0.9391698837280272,0.1177940145134925,-0.7101662755012512,Moving 
524,0.2173919677734375,1.5980682373046875,-0.072479248046875,0.9421566128730774,1.7795194387435913,-0.7226501107215881,Moving 
525,0.0814361572265625,0.690765380859375,-0.129638671875,0.6330674886703491,0.6097650527954102,0.5132731795310974,Moving 
526,-0.2937164306640625,0.6388092041015625,-0.3331298828125,0.5300827622413635,-0.5823292136192322,-0.2985613942146301,Moving 
527,-0.24920654296875,0.8787841796875,-0.416473388671875,0.1239512413740158,-1.1620365381240845,-0.267857551574707,Moving 
528,-0.120513916015625,1.1222686767578125,-0.5366058349609375,0.4883763492107391,0.5289636850357056,-0.7017743587493896,Moving 
529,0.1472625732421875,1.0064544677734375,-0.2303924560546875,1.0426172018051147,1.4450410604476929,-0.5488122701644897,Moving 
530,0.303131103515625,0.9508209228515624,-0.08343505859375,1.472399115562439,-0.9348390698432922,-0.6058318614959717,Moving 
531,0.3464202880859375,0.9466552734375,0.2050323486328125,0.9448599815368652,-3.5582664012908936,0.0077617829665541,Moving 
532,0.183868408203125,1.0879974365234375,0.2413177490234375,-0.3515937328338623,-1.6894856691360474,-0.2890081107616424,Moving 
533,0.314605712890625,0.917694091796875,-0.0700836181640625,-0.2747071981430053,1.2197203636169434,-0.4288434982299804,Moving 
534,0.2789306640625,0.9178619384765624,-0.1921234130859375,0.6048651337623596,1.9046499729156487,-0.2090432345867157,Moving 
535,0.169342041015625,0.9448394775390624,-0.18505859375,0.8660296201705933,0.4146350026130676,-0.2117551267147064,Moving 
536,0.0533599853515625,1.0540008544921875,-0.14788818359375,0.5825268030166626,-1.9250047206878664,-0.0376009047031402,Moving 
537,-0.0986175537109375,1.125030517578125,0.1418914794921875,0.2965264618396759,-2.274066209793091,-0.5307493805885315,Moving 
538,0.33221435546875,0.9910736083984376,0.0398406982421875,-0.8115418553352356,0.9044973850250244,-0.6173558831214905,Moving 
539,0.4766082763671875,1.0983428955078125,-0.155487060546875,-0.5700139403343201,1.5309927463531494,-0.32386115193367,Moving 
540,0.68719482421875,1.309814453125,-0.092620849609375,-0.4075962603092193,-0.0422529131174087,0.2849177420139313,Moving 
541,0.4588775634765625,1.095794677734375,0.286376953125,-1.4099522829055786,-0.1719312816858291,1.2061413526535034,Moving 
542,-0.389007568359375,0.8920745849609375,0.775604248046875,-2.931476831436157,2.5413377285003658,1.2912448644638062,Moving 
543,-0.2917938232421875,1.4386138916015625,-0.1931304931640625,-2.9096698760986333,-0.0086012110114097,0.9667085409164428,Moving 
544,-0.0207977294921875,1.483245849609375,-0.4307708740234375,-1.8722752332687376,-1.013487458229065,0.4672127366065979,Moving 
545,0.3733673095703125,1.0128021240234375,0.05694580078125,-0.3799212276935577,1.0118765830993652,0.5919874310493469,Moving 
546,0.4321746826171875,0.813934326171875,0.09765625,-0.570162296295166,1.2716034650802612,1.3527417182922363,Moving 
547,0.2059783935546875,0.751251220703125,-0.1598358154296875,-0.2278371602296829,2.2354073524475098,1.352975606918335,Moving 
548,0.1019134521484375,0.7430419921875,-0.1894989013671875,-0.0350306890904903,2.208019495010376,0.92932790517807,Moving 
549,-0.0196685791015625,0.7281494140625,-0.183929443359375,0.4853099584579468,1.87113618850708,0.8745815753936768,Moving 
550,-0.1202239990234375,0.768646240234375,-0.046905517578125,1.1442657709121704,1.743531346321106,0.5964543223381042,Moving 
551,-0.15625,0.7953338623046875,0.135711669921875,1.7416495084762567,1.3766210079193115,-0.0564797855913639,Moving 
552,0.1784515380859375,1.149200439453125,0.5928955078125,1.6813215017318726,1.661509394645691,-0.5139988660812378,Moving 
553,0.6888427734375,1.2835540771484375,1.041900634765625,0.3594383299350738,3.24329686164856,0.1259741783142089,Moving 
554,0.0959930419921875,0.93328857421875,0.3566436767578125,0.5290648937225342,3.305588722229004,0.4779098331928253,Moving 
555,-0.071563720703125,1.1484832763671875,0.3166351318359375,0.1522161662578582,-1.4889386892318726,0.9336960315704346,Moving 
556,0.06689453125,1.4156646728515625,-0.7557220458984375,0.8242568969726562,-0.7941117286682129,0.4631330370903015,Moving 
557,-0.450714111328125,0.754852294921875,0.3535308837890625,0.6177116632461548,2.443963527679444,-1.1115353107452393,Moving 
558,-0.10748291015625,0.9344635009765624,-0.2465362548828125,0.6669458150863647,1.3212802410125732,-1.1721898317337036,Moving 
559,0.3001556396484375,0.9139556884765624,-0.2388916015625,0.3055098354816437,2.3443713188171387,-0.6690105795860289,Moving 
560,0.41864013671875,1.035064697265625,-0.0998687744140625,1.3736693859100342,1.1977726221084597,-0.0703548565506935,Moving 
561,0.173828125,0.933685302734375,0.053680419921875,1.2102415561676023,1.6033660173416138,0.0490298606455326,Moving 
562,0.0574798583984375,1.0023193359375,0.0503387451171875,0.8663641214370728,1.8251487016677856,-0.0783928111195564,Moving 
563,0.1337127685546875,1.029022216796875,-0.0191192626953125,0.4801498353481293,1.3943352699279783,-0.0333683416247367,Moving 
564,0.2398223876953125,0.8951568603515625,-0.1983795166015625,0.1479465812444687,1.4815005064010618,0.0667726397514343,Moving 
565,0.2167510986328125,0.94830322265625,-0.3822784423828125,0.4096474349498749,0.636078953742981,0.4245225191116333,Moving 
566,0.146392822265625,1.1739044189453125,-0.217742919921875,0.6868817210197449,0.0795899033546447,0.5587727427482605,Moving 
567,0.0208282470703125,1.1261749267578125,-0.1136627197265625,0.9351564645767212,0.9023255705833436,0.4956725835800171,Moving 
568,-0.310455322265625,1.0796966552734375,0.1918487548828125,2.5907888412475586,3.399867296218872,0.2228362709283828,Moving 
569,-0.0998077392578125,0.964630126953125,0.435089111328125,-1.0026955604553225,0.5367316007614136,-0.8169060349464417,Moving 
570,0.3636016845703125,1.0030517578125,-0.1178741455078125,-2.01302456855774,0.7927564978599548,-0.4459961354732513,Moving 
571,0.4028472900390625,0.9997711181640624,-0.4284515380859375,-0.2586813569068908,0.3449755012989044,0.2444140017032623,Moving 
572,0.3249359130859375,0.91876220703125,-0.2824859619140625,0.41083148121833796,0.3579948842525482,0.0902276337146759,Moving 
573,0.199188232421875,0.9915771484375,-0.251556396484375,0.4377533793449402,0.4870205223560333,0.25978684425354,Moving 
574,0.058563232421875,1.0206146240234375,-0.1635589599609375,0.6933372020721436,0.8554832339286804,0.1525125801563263,Moving 
575,-0.1066131591796875,1.0159912109375,0.07171630859375,0.5798016190528871,1.725232481956482,-0.2429708391427993,Moving 
576,0.17498779296875,0.9812164306640624,0.013458251953125,-0.8003997206687927,0.5701119303703308,-0.4250815212726593,Moving 
577,0.2660980224609375,0.9874420166015624,-0.2268218994140625,-0.7269047498703003,-0.0195499993860721,-0.2077129781246185,Moving 
578,0.257354736328125,0.9381866455078124,-0.289398193359375,-0.2629677057266235,0.2190175652503967,-0.1055858135223388,Moving 
579,0.1645050048828125,0.9731903076171876,-0.2130126953125,0.1531088650226593,0.3580907583236694,-0.0647840574383735,Moving 
580,0.0450592041015625,0.972503662109375,-0.0056304931640625,0.1073435023427009,0.5035560727119446,-0.2104134261608123,Moving 
581,0.093597412109375,0.98175048828125,0.056060791015625,-0.6735355257987976,0.4075206220149994,-0.3920346200466156,Moving 
582,0.1812591552734375,0.967376708984375,-0.1516571044921875,-0.8727729916572571,0.1271347850561142,-0.3487092554569244,Moving 
583,0.2467193603515625,0.9567413330078124,-0.2134552001953125,-0.5858440399169922,0.3083088397979736,-0.2113404721021652,Moving 
584,0.1953887939453125,0.9101409912109376,-0.112548828125,-0.0964474454522132,0.7140829563140869,-0.0582164339721202,Moving 
585,0.0619049072265625,0.967376708984375,0.05511474609375,0.3292599320411682,0.913644552230835,-0.1605968624353408,Moving 
586,-0.037567138671875,1.1115264892578125,0.492401123046875,-0.0849244743585586,1.4944916963577268,-0.3808453381061554,Moving 
587,0.0576324462890625,1.2207794189453125,0.6631011962890625,-1.2484548091888428,1.2665032148361206,-0.5105783343315125,Moving 
588,0.2663421630859375,1.15423583984375,0.496002197265625,-1.3534927368164062,0.6569600105285645,-0.2727673351764679,Moving 
589,0.228271484375,1.015899658203125,0.292633056640625,-1.1027500629425049,1.0893205404281616,0.2565047442913055,Moving 
590,0.3557281494140625,0.900115966796875,0.251678466796875,-1.0565383434295654,0.4457215368747711,0.809718668460846,Moving 
591,0.15289306640625,0.844970703125,-0.3533782958984375,-0.2981145083904266,-0.8272862434387207,1.192699670791626,Moving 
592,-0.0298004150390625,0.8758544921875,-0.5829620361328125,1.4155808687210083,3.803186655044556,1.1915401220321655,Moving 
593,0.7686309814453125,0.890350341796875,0.768798828125,-0.7223443388938904,-0.8894371986389159,1.9722862243652344,Moving 
594,0.154083251953125,1.1082916259765625,0.26861572265625,0.7142211794853209,2.770554542541504,1.6277107000350952,Moving 
595,-0.0235137939453125,1.05438232421875,0.109893798828125,0.8224294185638428,1.34290611743927,1.1983574628829956,Moving 
596,-0.0323944091796875,0.92742919921875,0.03497314453125,0.5016735196113586,0.92612624168396,0.9288650155067444,Moving 
597,0.1230316162109375,0.9218292236328124,0.0629730224609375,0.8735096454620361,1.6442918777465818,0.6635937094688416,Moving 
598,0.161102294921875,0.8688201904296875,0.106292724609375,0.9081869125366212,2.025107383728028,0.4297436475753784,Moving 
599,0.0919036865234375,0.8844757080078125,0.15020751953125,1.0093026161193848,2.0065348148345947,0.2676314413547516,Moving 
600,-0.0195159912109375,0.9031829833984376,0.1414337158203125,1.0273932218551636,1.583762764930725,-0.0516663901507854,Moving 
601,0.062225341796875,0.9502716064453124,0.2643890380859375,0.9442482590675354,1.0984159708023071,-0.332675963640213,Moving 
602,0.4049072265625,1.043975830078125,0.5639801025390625,0.2174279242753982,0.8670842051506042,-0.1738527566194534,Moving 
603,0.5116729736328125,0.9759521484375,0.3284912109375,0.301220566034317,0.9812979102134703,0.05411916226148599,Moving 
604,0.2053070068359375,0.817718505859375,0.017303466796875,0.4495967030525207,0.8215793371200562,-0.1086298078298568,Moving 
605,-0.1457977294921875,1.4865264892578125,-0.1717681884765625,0.8210685253143309,-0.4140227437019348,-0.7046103477478027,Moving 
606,0.1197662353515625,1.1413116455078125,0.780364990234375,-0.2591359615325928,-0.2729705572128296,-0.1482989192008972,Moving 
607,0.38397216796875,0.966796875,-0.32244873046875,0.973122775554657,1.2179032564163208,-0.2889577746391296,Moving 
608,0.033111572265625,0.671295166015625,-0.1467437744140625,0.0848531052470207,1.4660775661468506,-0.3295299708843231,Moving 
609,-0.043853759765625,0.9913330078125,-0.220703125,0.3641587793827057,0.2980974614620209,-0.4186824858188629,Moving 
610,0.05780029296875,0.9560394287109376,-0.1367950439453125,0.7530332803726196,0.2144928574562072,-0.5124667286872864,Moving 
611,0.182525634765625,0.9713897705078124,-0.1733551025390625,0.6818033456802368,2.0731773376464844,-0.4828396141529083,Moving 
612,0.233978271484375,1.009246826171875,-0.1902923583984375,0.4266021847724914,1.4091142416000366,-0.2115362137556076,Moving 
613,0.1625518798828125,0.9603118896484376,-0.1873779296875,0.5391340255737305,-0.5082850456237793,0.1670507788658142,Moving 
614,0.1060791015625,1.003570556640625,-0.047027587890625,0.3934868276119232,-1.941521167755127,0.1662891060113906,Moving 
615,0.1494598388671875,1.0507659912109375,0.0264739990234375,0.2166052758693695,-2.5325167179107666,0.0923738703131675,Moving 
616,0.21148681640625,0.9427947998046876,0.0280914306640625,-0.0967515781521797,-0.5134665369987488,-0.0214248653501272,Moving 
617,0.16827392578125,0.95001220703125,-0.1054229736328125,-0.0400675237178802,1.61994469165802,-0.0663337484002113,Moving 
618,0.2013397216796875,0.9539031982421876,-0.179962158203125,0.0751573368906974,1.4745086431503296,-0.0074653732590377,Moving 
619,0.1677093505859375,0.951019287109375,-0.23968505859375,0.3911672234535217,-0.09415153414011,0.0583242923021316,Moving 
620,0.118408203125,0.9694976806640624,-0.2458648681640625,0.6007116436958313,-1.6477230787277222,0.0151424678042531,Moving 
621,0.0698394775390625,0.9754638671875,-0.15460205078125,0.6116899847984314,-1.320710062980652,-0.1741486340761184,Moving 
622,0.12115478515625,1.0537109375,0.0497283935546875,1.0580483675003052,-1.1245075464248655,-0.4352444112300873,Moving 
623,0.2684173583984375,1.0382843017578125,0.149566650390625,-0.2146108299493789,-0.1469814628362655,-0.4198502600193023,Moving 
624,0.167388916015625,1.0607147216796875,-0.12432861328125,-0.4128901064395904,0.5815169215202332,-0.4320659339427948,Moving 
625,0.1936798095703125,1.0620574951171875,-0.2008209228515625,-0.1176789626479148,0.2679417133331299,-0.5749402642250061,Moving 
626,0.3033447265625,0.973846435546875,-0.142974853515625,0.1382705271244049,-0.6956261992454529,-0.5694456100463867,Moving 
627,0.4732666015625,1.1511077880859375,0.00421142578125,-0.1088471189141273,-0.6811116933822632,-0.3273725509643554,Moving 
628,0.5276947021484375,1.1471405029296875,0.1020050048828125,-0.6488291025161743,0.2990684509277344,0.2781903445720672,Moving 
629,0.232086181640625,0.910247802734375,0.2654571533203125,-1.4569283723831177,1.2526150941848757,0.9960722923278807,Moving 
630,-0.232513427734375,0.9307861328125,0.3666534423828125,-2.3863213062286377,1.891440391540528,1.126124620437622,Moving 
631,-0.211883544921875,1.49859619140625,-0.098663330078125,-2.7477970123291016,-0.1325873434543609,0.670515239238739,Moving 
632,0.0318450927734375,1.3162994384765625,-0.3730010986328125,-1.810230731964112,-0.9568995833396912,0.4672156572341919,Moving 
633,0.1394500732421875,1.1885833740234375,-0.194366455078125,-0.6581680178642273,0.7556104063987732,0.6483087539672852,Moving 
634,0.4555206298828125,0.877532958984375,0.198089599609375,-0.1290932744741439,0.039190012961626004,1.3728445768356323,Moving 
635,0.364105224609375,0.772247314453125,-0.0389251708984375,-0.3608537912368774,1.7241754531860352,1.8557544946670528,Moving 
636,-0.04522705078125,0.76910400390625,-0.209686279296875,-0.3424929082393646,2.195746898651123,0.5921317338943481,Moving 
637,-0.2845458984375,0.7217559814453125,-0.1369171142578125,0.2826428711414337,1.0718262195587158,0.3327329456806183,Moving 
638,-0.3791656494140625,0.5984344482421875,-0.0336456298828125,0.958091914653778,-0.04769242182374,0.3377319574356079,Moving 
639,-0.227569580078125,0.659698486328125,-0.004058837890625,1.266767501831055,-0.6041293144226074,-0.4520550668239593,Moving 
640,-0.078765869140625,1.097320556640625,0.2373809814453125,1.1116756200790403,0.0716571435332298,-1.0104321241378784,Moving 
641,1.000762939453125,1.6553192138671875,1.453460693359375,-0.8666917085647583,2.3761186599731445,0.1878846883773803,Moving 
642,0.767578125,0.9762725830078124,0.777740478515625,0.3072350323200226,-0.8834174275398254,0.3998328745365143,Moving 
643,0.1768035888671875,0.86090087890625,0.1634979248046875,0.3410800993442535,-0.5980508923530579,0.4473761618137359,Moving 
644,-0.1927947998046875,0.8130950927734375,-0.1473388671875,0.404037743806839,-0.2264586985111236,-0.3829561769962311,Moving 
645,0.0570526123046875,1.319183349609375,-0.1900482177734375,1.1141257286071775,0.2786476016044616,-0.8354701399803162,Moving 
646,0.5614166259765625,1.119140625,0.6496429443359375,0.0574158877134323,-1.7658736705780032,0.4447686672210693,Moving 
647,-0.149017333984375,0.6564483642578125,-0.2264404296875,0.3536717891693115,0.6153643727302551,-0.3696646094322204,Moving 
648,-0.124359130859375,0.806793212890625,-0.3025054931640625,0.1517969816923141,0.4254783391952514,-0.5488998889923096,Moving 
649,-0.0155029296875,1.1597442626953125,-0.47003173828125,0.3263075351715088,0.6663937568664551,-0.5873769521713257,Moving 
650,0.1816253662109375,0.9541168212890624,-0.3420257568359375,1.0582445859909058,0.9253004193305968,-0.2918531596660614,Moving 
651,0.18505859375,0.8951873779296875,-0.110748291015625,1.1440937519073486,-0.8747357726097107,-0.4415268003940582,Moving 
652,0.21661376953125,0.9572601318359376,0.0623779296875,0.6347657442092896,-3.637608528137207,-0.2627170979976654,Moving 
653,0.190460205078125,0.998321533203125,-0.011993408203125,-0.0813806131482124,-2.032952070236206,-0.2691161632537842,Moving 
654,0.272186279296875,1.0020904541015625,-0.0712738037109375,0.7503621578216553,0.0688762664794921,-0.5473871827125549,Moving 
655,0.322479248046875,0.95123291015625,-0.031097412109375,0.8315704464912415,1.0120238065719604,-0.2009634673595428,Moving 
656,0.18646240234375,1.0079193115234375,-0.02459716796875,0.6756064295768738,-0.32240068912506104,-0.0590337589383125,Moving 
657,0.0963592529296875,1.095245361328125,-0.041534423828125,0.4657282829284668,-1.624654769897461,-0.0644008293747901,Moving 
658,-0.03216552734375,1.174072265625,0.01556396484375,0.1674009710550308,-1.9442726373672483,-0.4184662401676178,Moving 
659,0.2772064208984375,1.02984619140625,0.040069580078125,-0.4819519817829132,-0.3096230924129486,-0.6598210334777832,Moving 
660,0.417510986328125,1.026519775390625,-0.0763092041015625,-0.4697946608066559,0.3204962611198425,-0.45509934425354,Moving 
661,0.555633544921875,1.17333984375,-0.0662384033203125,-0.5078389644622803,0.3572460114955902,-0.0763967707753181,Moving 
662,0.5931549072265625,1.0718841552734375,0.1665802001953125,-1.183388352394104,-0.3973947763442993,0.6778882145881653,Moving 
663,0.1549224853515625,0.8135223388671875,0.42120361328125,-2.279606580734253,1.4468690156936646,1.7856276035308838,Moving 
664,-0.2352294921875,1.375335693359375,0.02471923828125,-2.665295124053955,2.3933098316192627,1.2482513189315796,Moving 
665,-0.2574310302734375,1.733978271484375,-0.469329833984375,-2.971700429916382,-2.4760727882385254,0.5215545296669006,Moving 
666,0.0662384033203125,1.06219482421875,-0.14569091796875,-0.5519715547561646,-0.25127005577087397,0.6767622232437134,Moving 
667,0.252288818359375,0.8711395263671875,0.1939544677734375,-0.2023078352212906,1.9911025762557983,0.9437949657440186,Moving 
668,0.4996185302734375,0.7803497314453125,-0.1812744140625,-0.152986079454422,1.7728530168533323,1.7871267795562744,Moving 
669,0.2510223388671875,0.753387451171875,-0.2031402587890625,-0.3308170735836029,2.34938645362854,1.2520500421524048,Moving 
670,-0.1812591552734375,0.75152587890625,-0.232025146484375,0.3947478532791137,1.2683024406433103,0.4216971695423126,Moving 
671,-0.390655517578125,0.62261962890625,-0.085784912109375,1.1799566745758057,1.0913127660751345,0.3936226665973663,Moving 
672,-0.3876953125,0.613677978515625,-0.0518341064453125,1.9276564121246336,-0.4859424829483032,-0.2748760282993316,Moving 
673,-0.37109375,0.989501953125,-0.0088043212890625,1.858594298362732,-1.006306529045105,-1.2360332012176514,Moving 
674,1.020751953125,1.941436767578125,2.31494140625,-2.2039482593536377,2.928910732269287,0.1655287742614746,Moving 
675,1.122711181640625,1.02423095703125,0.840606689453125,0.2746126651763916,0.0013278521364554,1.0129575729370115,Moving 
676,0.2109375,0.69464111328125,0.0825958251953125,0.1578668653964996,-1.142273187637329,0.4169775247573852,Moving 
677,-0.306549072265625,0.6549530029296875,-0.3008880615234375,0.1673549115657806,-1.722830057144165,-0.2869279086589813,Moving 
678,-0.118316650390625,1.4007415771484375,-0.372528076171875,0.9747270941734314,-0.5737319588661194,-1.799704909324646,Moving 
679,0.5757598876953125,1.48974609375,0.4324188232421875,1.0179551839828491,2.488576412200928,-0.0016090818680822,Moving 
680,-0.0415802001953125,0.4765777587890625,-0.3332977294921875,0.2473674565553665,1.3477531671524048,-0.1969349086284637,Moving 
681,-0.0694427490234375,0.66021728515625,-0.55328369140625,0.0085098650306463,-0.8573517203330994,-0.2115897387266159,Moving 
682,-0.082855224609375,1.2049407958984375,-0.8441162109375,1.2033090591430664,-3.455125331878662,-0.2470313608646392,Moving 
683,0.0491485595703125,0.8904571533203125,-0.30755615234375,1.3594334125518799,-0.5124387741088867,-0.3892271220684051,Moving 
684,0.12811279296875,0.8937530517578125,-0.0724639892578125,0.7115111351013184,-0.6534712910652161,-0.6638554930686951,Moving 
685,0.3918914794921875,1.2718505859375,-0.0904693603515625,1.7268838882446291,-4.462321758270264,-0.7929599285125732,Moving 
686,0.5518341064453125,1.015350341796875,0.16217041015625,0.5991377234458923,-3.4089109897613525,-0.0908199176192283,Moving 
687,0.4551544189453125,0.8431549072265625,0.2166290283203125,-0.1730697900056839,0.0024964471813291,-0.1358451843261718,Moving 
688,0.15447998046875,0.987457275390625,0.0228118896484375,-0.1437505036592483,1.922332525253296,-0.0980583876371383,Moving 
689,0.13861083984375,0.996337890625,-0.139923095703125,0.0457528419792652,1.8946335315704343,-0.2051885724067688,Moving 
690,-0.04083251953125,1.1872711181640625,-0.22528076171875,0.273685872554779,-1.1220015287399292,-0.4628832340240478,Moving 
691,0.1341705322265625,1.0732421875,-0.170135498046875,-0.0490815266966819,-2.0925960540771484,-0.5617197751998901,Moving 
692,0.5159149169921875,1.0345916748046875,0.1058349609375,0.5011422038078308,-0.6671575307846069,-0.5127010941505432,Moving 
693,0.62646484375,1.2552337646484375,0.1465911865234375,-1.0354626178741455,1.1264665126800537,0.0234169084578752,Moving 
694,0.5456085205078125,1.0583343505859375,0.1380615234375,-1.6081141233444214,0.677015483379364,0.8017310500144958,Moving 
695,0.1212005615234375,0.8295135498046875,0.2767181396484375,-2.1240928173065186,1.7017998695373535,1.6942559480667114,Moving 
696,-0.336395263671875,1.440521240234375,0.0059356689453125,-2.4643995761871342,1.1802074909210205,1.1130633354187012,Moving 
697,-0.3013916015625,1.613922119140625,-0.440399169921875,-2.548461437225342,-2.252880096435547,0.5946229100227356,Moving 
698,0.13067626953125,1.0526885986328125,-0.1311187744140625,-0.6457206606864929,0.6222923398017883,0.699576735496521,Moving 
699,0.262786865234375,0.89556884765625,0.0909576416015625,-0.2480548173189163,1.7197575569152832,0.7980412244796753,Moving 
700,0.5728607177734375,0.7443389892578125,-0.1444549560546875,-0.0797158703207969,1.6231913566589355,1.948398232460022,Moving 
701,0.1636505126953125,0.693267822265625,-0.2137908935546875,-0.3360451161861419,2.338934421539306,0.9352273344993592,Moving 
702,-0.213714599609375,0.71148681640625,-0.3011627197265625,0.5961310267448425,1.0826096534729004,0.5785973072052002,Moving 
703,-0.4119720458984375,0.638092041015625,-0.170989990234375,1.2960904836654663,0.7995771169662476,0.4779638946056366,Moving 
704,-0.43182373046875,0.618133544921875,-0.1093597412109375,2.0735561847686768,-0.3687178492546081,-0.3527364730834961,Moving 
705,-0.45416259765625,1.076995849609375,-0.0794219970703125,2.205291271209717,-1.5029091835021973,-1.6146715879440308,Moving 
706,1.5970611572265625,2.2647705078125,2.771942138671875,-2.3771991729736333,3.9037652015686035,0.6379978060722351,Moving 
707,0.8396148681640625,0.8396759033203125,0.6035003662109375,0.0706067904829979,-0.9278317093849182,0.8983971476554871,Moving 
708,-0.0666656494140625,0.7794647216796875,-0.128143310546875,-0.2176521718502044,-1.8110313415527344,-0.0219335276633501,Moving 
709,-0.286712646484375,1.635467529296875,-0.3431396484375,0.1038734018802642,-1.8347160816192627,-0.8651002049446106,Moving 
710,-0.0447845458984375,0.6366729736328125,-0.2330474853515625,0.6702017784118652,2.353314161300659,0.03436915948987,Moving 
711,-0.0702972412109375,0.6244354248046875,-0.2642059326171875,0.8243295550346375,1.9322988986969,-1.122039556503296,Moving 
712,0.0622406005859375,1.13543701171875,-0.343414306640625,0.41161763668060297,-0.523172914981842,-0.9654883146286012,Moving 
713,9.1552734375e-05,1.0836944580078125,-0.537445068359375,1.0620028972625732,-2.5059621334075928,-0.109011173248291,Moving 
714,0.1073760986328125,0.7804718017578125,-0.2603302001953125,1.3211559057235718,-1.3401260375976562,-0.384490430355072,Moving 
715,0.1836700439453125,0.92742919921875,-0.0905303955078125,0.6222363710403442,-1.0399407148361206,-0.6663274168968201,Moving 
716,0.3594512939453125,1.11602783203125,-0.0691680908203125,0.6014147400856018,-1.5981296300888062,-0.6649143695831299,Moving 
717,0.5169830322265625,0.9827423095703124,0.06976318359375,1.1616833209991455,-3.6045229434967037,-0.3690507411956787,Moving 
718,0.3581695556640625,0.97845458984375,0.1644439697265625,0.2362492829561233,-1.4404611587524414,-0.0299951825290918,Moving 
719,0.126739501953125,0.9825439453125,0.0636138916015625,0.2459088414907455,0.8750598430633545,-0.1548945009708404,Moving 
720,0.081207275390625,1.0363006591796875,-0.0005645751953125,0.4254112243652344,1.5045344829559326,-0.3967199325561523,Moving 
721,0.06768798828125,1.130462646484375,-0.0904083251953125,0.1574357002973556,-0.3819998204708099,-0.4227046370506286,Moving 
722,0.17449951171875,0.9776458740234376,-0.067626953125,-0.4335535764694214,-1.4128655195236206,-0.5881431698799133,Moving 
723,0.428253173828125,1.009368896484375,-0.0656280517578125,-0.1096644476056099,0.1144014075398445,-0.5326412916183472,Moving 
724,0.62469482421875,1.2518768310546875,0.0555572509765625,-0.4295457899570465,0.4199213683605194,0.1609531939029693,Moving 
725,0.53594970703125,1.074981689453125,0.312255859375,-1.7703970670700067,-0.0617312751710414,1.1046760082244873,Moving 
726,-0.03448486328125,1.0110321044921875,0.4577484130859375,-2.62697982788086,1.7104319334030151,2.206008195877075,Moving 
727,-0.2910003662109375,1.650634765625,-0.1480255126953125,-3.0380849838256836,-0.18596720695495603,1.7486925125122068,Moving 
728,-0.4315185546875,1.6044769287109375,-0.344482421875,-2.0330123901367188,-2.241549730300904,0.4775761663913727,Moving 
729,0.1449432373046875,0.94189453125,-0.015716552734375,-0.1815034747123718,2.3297901153564453,0.8826138973236084,Moving 
730,0.222808837890625,0.85498046875,0.0575714111328125,-0.6300042867660522,0.8949800729751587,0.9797846674919128,Moving 
731,0.4218902587890625,0.742828369140625,-0.216400146484375,-0.1019085198640823,1.8277194499969482,1.5499730110168457,Moving 
732,0.0698089599609375,0.66619873046875,-0.241943359375,-0.3934926986694336,1.9320213794708248,0.7090138792991638,Moving 
733,-0.22393798828125,0.582763671875,-0.2565765380859375,0.5481930375099182,1.0755045413970947,0.2271023988723755,Moving 
734,-0.3503570556640625,0.564788818359375,-0.125335693359375,1.4870734214782717,0.4484353065490722,0.1734934896230697,Moving 
735,-0.3353118896484375,0.60137939453125,-0.10546875,2.4763336181640625,-0.3014929890632629,-0.4404383599758148,Moving 
736,-0.1493072509765625,1.596649169921875,0.522369384765625,1.2978543043136597,-0.7572863698005676,-1.0939775705337524,Moving 
737,1.7230072021484375,1.925872802734375,1.5214691162109375,-0.8774378299713135,-0.1456309705972671,1.5592738389968872,Moving 
738,0.41278076171875,0.2756500244140625,0.2607879638671875,0.3891876935958862,-0.0231495276093482,-0.0053521548397839,Moving 
739,-0.3986358642578125,1.5543365478515625,-0.379119873046875,0.5042069554328918,-2.2527873516082764,-0.6058185696601868,Moving 
740,0.0130615234375,1.4681854248046875,-0.23309326171875,0.0957523584365844,-0.6489226222038269,-0.2787453532218933,Moving 
741,-0.0890960693359375,0.62225341796875,-0.1997222900390625,0.3297520577907562,1.4709147214889526,-0.1986803412437439,Moving 
742,-0.090728759765625,0.66644287109375,-0.337371826171875,0.7023802399635315,1.1445600986480713,-1.0722568035125732,Moving 
743,0.0010833740234375,1.1290283203125,-0.533233642578125,0.2785922288894653,-1.2437798976898191,-0.4682052731513977,Moving 
744,0.046661376953125,1.0226898193359375,-0.5272674560546875,1.164019227027893,-2.0619864463806152,-0.2733724117279053,Moving 
745,0.105316162109375,0.77239990234375,-0.189849853515625,1.0370978116989136,-0.5763059258460999,-0.5791078209877014,Moving 
746,0.2078094482421875,0.9950103759765624,-0.06036376953125,0.47778466343879705,-0.880405068397522,-0.7404839396476746,Moving 
747,0.4285736083984375,1.1599884033203125,-0.106475830078125,1.4514966011047363,-3.828077793121338,-0.8215202093124391,Moving 
748,0.507904052734375,0.98309326171875,0.10626220703125,0.8589964509010315,-3.2859785556793213,-0.3908132910728454,Moving 
749,0.3543548583984375,0.939605712890625,0.2239837646484375,0.1628933101892471,-0.7477772831916809,-0.0237788334488868,Moving 
750,0.1045074462890625,1.0014190673828125,0.08966064453125,-0.0190993919968605,1.4694504737854004,-0.2802881300449371,Moving 
751,0.1350860595703125,1.048492431640625,-0.0648651123046875,-0.0201207138597965,1.3815741539001465,-0.1702870428562164,Moving 
752,0.1463775634765625,1.10040283203125,-0.1048431396484375,-0.5166710615158081,-0.274021178483963,-0.3897038102149963,Moving 
753,0.23284912109375,0.967437744140625,-0.25830078125,-0.4498923122882843,-1.053898572921753,-0.2640742659568786,Moving 
754,0.254974365234375,1.002716064453125,-0.183197021484375,0.4717233180999756,-0.1801191717386245,-0.3162863254547119,Moving 
755,0.4051055908203125,1.244140625,0.2211151123046875,0.11709626019001,-1.6519851684570312,0.1052526533603668,Moving 
756,0.546905517578125,1.131072998046875,0.487823486328125,-2.2070014476776123,0.34750497341156,0.8735381364822388,Moving 
757,0.0866851806640625,0.878570556640625,0.381011962890625,-3.0629422664642334,1.9690475463867188,2.093162298202514,Moving 
758,-0.20654296875,1.489166259765625,-0.1629486083984375,-2.88785719871521,-0.5617243051528931,1.6718376874923706,Moving 
759,-0.31976318359375,1.6644744873046875,-0.3612518310546875,-1.5511780977249146,-2.069612741470337,0.6486224532127379,Moving 
760,0.21697998046875,1.0033111572265625,0.2541351318359375,-0.2707561254501343,1.9115499258041384,0.7386109232902527,Moving 
761,0.2573089599609375,0.8132171630859375,-0.022735595703125,-0.4487796723842621,1.426801085472107,0.8616111874580383,Moving 
762,0.2289581298828125,0.7192535400390625,-0.194122314453125,0.1043977811932563,2.274852514266968,1.2153191566467283,Moving 
763,0.108795166015625,0.7615203857421875,-0.2407379150390625,-0.1012600436806678,1.767495036125183,0.6982811093330383,Moving 
764,-0.1802520751953125,0.6811981201171875,-0.2111968994140625,0.7185027599334717,0.8878859281539917,0.3773305118083954,Moving 
765,-0.2786865234375,0.6420135498046875,-0.0708160400390625,1.5975967645645142,0.5950028896331787,0.4200888872146606,Moving 
766,-0.2438507080078125,0.6542816162109375,-0.056976318359375,2.18924880027771,-0.2760736644268036,-0.2141900509595871,Moving 
767,-0.2331085205078125,1.4185333251953125,0.272552490234375,1.349749207496643,-0.4516385495662689,-0.9085517525672911,Moving 
768,1.2551422119140625,1.7386016845703125,1.743072509765625,-1.876680612564087,1.6881139278411863,0.6152245402336121,Moving 
769,0.4507293701171875,0.5837249755859375,0.376678466796875,0.6138844490051271,-0.2340780049562454,0.0275147147476673,Moving 
770,0.0110931396484375,1.05572509765625,0.062652587890625,0.4466070532798767,-0.7141546010971069,0.4155007898807525,Moving 
771,0.0621795654296875,0.6094970703125,-0.0046844482421875,-0.0042738406918942,-0.2079939395189285,-0.2805317938327789,Moving 
772,-0.004791259765625,1.4408111572265625,-0.1917266845703125,1.2301180362701416,-1.2674952745437622,-1.0703811645507812,Moving 
773,0.7729644775390625,1.5560760498046875,0.4185638427734375,0.2988780438899994,1.3154311180114746,0.4183916449546814,Moving 
774,-0.0471954345703125,0.4371490478515625,-0.36590576171875,0.3435163497924804,1.5840511322021484,0.1017330214381218,Moving 
775,-0.1741790771484375,0.6062774658203125,-0.4102783203125,-0.1042880564928054,-1.7896602153778076,-0.4785641729831695,Moving 
776,-0.1378936767578125,1.2211761474609375,-0.681243896484375,0.9853972792625428,-2.634669303894043,-0.2453871220350265,Moving 
777,0.100799560546875,1.079986572265625,-0.2635955810546875,0.996059238910675,0.0990584045648574,-0.4529821276664734,Moving 
778,0.2046051025390625,0.862762451171875,-0.0724945068359375,0.6096135377883911,0.0764095559716224,-0.6490107774734497,Moving 
779,0.5734710693359375,1.08642578125,0.110748291015625,1.14952290058136,-5.536191463470459,-0.4420687556266784,Moving 
780,0.4678802490234375,0.9087677001953124,0.073883056640625,-0.17438751459121696,-1.8921293020248413,0.0048376321792602,Moving 
781,0.362579345703125,0.9130706787109376,0.0125274658203125,0.492274671792984,0.8578923344612122,0.0706768333911895,Moving 
782,0.129974365234375,1.015594482421875,0.0127716064453125,-0.0696826726198196,1.2178454399108891,-0.0818333476781845,Moving 
783,0.1151885986328125,0.921234130859375,-0.1363067626953125,-0.2278531342744827,1.1791808605194092,-0.0369058214128017,Moving 
784,0.047882080078125,0.911773681640625,-0.2932891845703125,0.5190426111221313,0.3053604364395141,-0.1335495412349701,Moving 
785,-0.021636962890625,1.03363037109375,-0.347930908203125,0.5785467028617859,-1.9235032796859741,-0.2797301709651947,Moving 
786,0.084808349609375,1.079742431640625,-0.22869873046875,-0.0016468988033011,-0.8484711050987244,-0.5101689696311951,Moving 
787,0.2670135498046875,1.10260009765625,-0.132965087890625,0.8421351909637451,-1.0622010231018066,-0.8266159296035767,Moving 
788,0.436859130859375,0.992950439453125,0.1670989990234375,-0.0217242036014795,-1.2794030904769895,-0.3574404120445251,Moving 
789,0.25677490234375,1.1547088623046875,-0.007843017578125,-0.3577147424221039,0.4672540128231048,-0.0486263930797576,Moving 
790,0.2304840087890625,1.191162109375,-0.015045166015625,-0.5523739457130432,0.7318864464759827,0.1845099180936813,Moving 
791,0.20904541015625,1.0165557861328125,0.074676513671875,-1.4359854459762567,-0.6297537088394165,0.7511059641838074,Moving 
792,-0.11798095703125,0.876220703125,0.3526153564453125,-1.7670260667800903,-0.1703227311372757,1.1370846033096311,Moving 
793,-0.237396240234375,1.14886474609375,0.1901397705078125,-2.8758187294006348,1.6294406652450562,0.7162845730781555,Moving 
794,0.03717041015625,1.471435546875,-0.42437744140625,-3.0299363136291504,-1.3818937540054321,0.656761884689331,Moving 
795,0.026153564453125,1.2033233642578125,-0.30462646484375,-1.2932816743850708,-2.0120906829833984,0.5266669988632202,Moving 
796,0.3718414306640625,0.8806304931640625,0.3749237060546875,-0.5139911770820618,0.42656010389328003,0.8072315454483032,Moving 
797,0.111663818359375,0.8020782470703125,-0.0879058837890625,-0.4609111547470093,0.9973162412643432,0.7098512053489685,Moving 
798,0.13824462890625,0.86968994140625,-0.2221221923828125,0.019140139222145,0.7617684602737427,1.0156569480895996,Moving 
799,0.0767059326171875,0.7808837890625,-0.1764068603515625,0.202611967921257,0.7035184502601624,0.7659711837768555,Moving 
800,-0.1163787841796875,0.808319091796875,0.0198516845703125,0.6940189599990845,0.7182207107543945,0.4129777252674103,Moving 
801,-0.0842132568359375,0.827056884765625,0.226470947265625,1.30193293094635,0.041651040315628,0.1505317240953445,Moving 
802,0.2240447998046875,1.066925048828125,0.5573272705078125,1.0579777956008911,-0.5023467540740967,-0.148270696401596,Moving 
803,0.449432373046875,0.9777984619140624,0.6719970703125,0.2396746426820755,-1.1635191440582275,0.1218785047531127,Moving 
804,0.038116455078125,0.8206634521484375,0.0018768310546875,0.1245347410440445,-0.4544202387332916,-0.0079263662919402,Moving 
805,-0.0053253173828125,0.8066253662109375,-0.129608154296875,0.8610889315605164,-1.2029786109924316,-0.5560818910598755,Moving 
806,0.6059722900390625,1.8851165771484373,0.2795257568359375,0.3465435802936554,-2.12190580368042,-0.2813509702682495,Moving 
807,0.112152099609375,0.7696990966796875,-0.044281005859375,0.3467273116111755,-0.31918466091156,0.1033495590090751,Moving 
808,-0.2424468994140625,0.6495361328125,-0.1677093505859375,0.4376899898052215,-1.0517001152038574,-0.1660970896482467,Moving 
809,-0.1563262939453125,1.1838836669921875,-0.3753509521484375,-0.2263242155313491,-0.7957195043563843,-0.682251513004303,Moving 
810,0.15423583984375,1.1009368896484375,-0.310333251953125,0.0085716499015688,0.1579283773899078,-0.5417394042015076,Moving 
811,0.497833251953125,1.0016937255859375,-0.2421722412109375,0.8889844417572021,-1.8658939599990845,-0.8664131164550781,Moving 
812,0.5586090087890625,0.8745574951171875,-0.0607757568359375,0.5052972435951233,-2.131868839263916,-0.3096433281898498,Moving 
813,0.1917572021484375,0.8581695556640625,-0.0041656494140625,-0.601323127746582,-2.280848503112793,0.0003787015157286,Moving 
814,0.23760986328125,1.016632080078125,-0.1934967041015625,0.0713109299540519,-1.503140568733215,-0.1948893219232559,Moving 
815,0.410614013671875,1.0036163330078125,-0.0422821044921875,0.4992694556713104,-0.9771957993507384,-0.2068082988262176,Moving 
816,0.219146728515625,0.9661102294921876,0.070343017578125,-0.1896088123321533,-1.4415693283081057,0.2483056783676147,Moving 
817,0.0933837890625,0.99908447265625,-0.0115203857421875,-0.24906495213508603,-1.30656099319458,0.1941460371017456,Moving 
818,0.058807373046875,0.966033935546875,-0.032135009765625,-0.2312619835138321,-0.4860433936119079,0.0081780347973108,Moving 
819,0.07037353515625,0.935394287109375,-0.071624755859375,-0.3857572972774505,0.2921160161495209,-0.3158186674118042,Moving 
820,0.171051025390625,0.9701385498046876,-0.1697998046875,-0.129951611161232,0.6923797726631165,-0.5626164674758911,Moving 
821,0.2833709716796875,0.9673614501953124,-0.1880645751953125,0.300845056772232,0.5703724026679993,-0.7830537557601929,Moving 
822,0.3913421630859375,0.9573974609375,-0.1414947509765625,0.2824926674365997,0.5071313977241516,-0.8521087169647217,Moving 
823,0.3957672119140625,0.9724273681640624,-0.106109619140625,0.1550223380327224,0.2644731998443603,-0.5235388278961182,Moving 
824,0.2650604248046875,1.0593719482421875,-0.0886077880859375,-0.090743750333786,-0.1445475965738296,-0.3738481700420379,Moving 
825,0.2080535888671875,1.1260528564453125,-0.1262054443359375,-0.0890260115265846,-0.3875455856323242,-0.3870992362499237,Moving 
826,0.17376708984375,1.0446319580078125,-0.05926513671875,0.1938022226095199,-1.1357327699661257,-0.44097900390625,Moving 
827,0.3369903564453125,1.2642364501953125,0.106201171875,-0.1292237639427185,-0.9104559421539308,-0.0948458164930343,Moving 
828,0.3227081298828125,1.0594329833984375,0.2887115478515625,-1.0163158178329468,0.7011248469352722,-0.0482370369136333,Moving 
829,0.1391143798828125,0.8760528564453125,0.2734527587890625,-1.8177245855331419,2.2659077644348145,0.4116756916046142,Moving 
830,-0.0005950927734375,0.8724517822265625,0.151641845703125,-2.0080211162567143,1.749793529510498,0.8402358293533325,Moving 
831,0.0838165283203125,1.272247314453125,-0.0605621337890625,-1.996682405471801,-0.9666411876678468,0.6743238568305969,Moving 
832,0.193939208984375,1.149078369140625,-0.379119873046875,-0.8429543972015381,0.5958316922187805,0.9212372303009032,Moving 
833,0.1563568115234375,1.1023101806640625,-0.2200775146484375,0.2985709905624389,0.3876609206199646,1.033724665641785,Moving 
834,0.4467315673828125,0.822845458984375,0.490264892578125,-0.0983492061495781,-0.2291096150875091,1.6430885791778564,Moving 
835,0.183013916015625,0.930877685546875,-0.02203369140625,0.1228758543729782,2.806325912475586,1.3480548858642578,Moving 
836,0.037353515625,0.9626617431640624,-0.1532745361328125,-0.1153721287846565,1.8273098468780518,1.217883825302124,Moving 
837,-0.069183349609375,1.0037078857421875,0.0113983154296875,-0.0525441691279411,2.051055431365967,1.0378341674804688,Moving 
838,0.04254150390625,0.9224395751953124,-0.023468017578125,0.2990796566009521,1.6433088779449463,0.8757997155189514,Moving 
839,-0.088287353515625,0.812042236328125,-0.0829010009765625,0.7362439036369324,0.7532679438591003,0.7159098982810974,Moving 
840,-0.2580718994140625,0.7895660400390625,-0.0274200439453125,1.213940143585205,0.63509601354599,0.2026561647653579,Moving 
841,-0.1942291259765625,0.7677764892578125,0.104736328125,1.4676915407180786,0.7317301630973816,-0.5389273762702942,Moving 
842,0.0913543701171875,1.187713623046875,0.4059600830078125,1.1409608125686646,1.2451844215393066,-0.9580924510955809,Moving 
843,0.8502044677734375,1.2753143310546875,1.200439453125,0.187893733382225,0.9402127861976624,-0.0701234266161918,Moving 
844,1.0255584716796875,1.0280609130859375,0.4537353515625,0.1717014461755752,0.7136861681938171,0.4181684851646423,Moving 
845,0.4012908935546875,0.6087188720703125,0.0673980712890625,-0.3439576327800751,0.2905229032039642,0.4644765853881836,Moving 
846,-0.209808349609375,1.224853515625,-0.52825927734375,0.7419457435607909,0.1819684654474258,-0.5910348296165466,Moving 
847,-0.065887451171875,1.473663330078125,-0.117462158203125,0.6099818348884583,0.3950796723365783,-0.7428948879241943,Moving 
848,0.0129547119140625,0.774017333984375,-0.053619384765625,0.6084470748901367,-0.4815711677074432,0.2853864729404449,Moving 
849,-0.1998748779296875,0.66748046875,-0.2940673828125,0.2248517572879791,0.8311483263969421,-0.7486353516578674,Moving 
850,-0.14776611328125,1.118743896484375,-0.549835205078125,0.1593238711357116,1.0003120899200442,-0.6188176870346069,Moving 
851,0.075286865234375,1.047882080078125,-0.53961181640625,0.9641303420066832,1.0386519432067869,-0.4069536626338959,Moving 
852,0.135284423828125,0.84979248046875,-0.1725616455078125,1.2985200881958008,0.5530717372894287,-0.4281606674194336,Moving 
853,0.2002410888671875,1.0025177001953125,-0.034332275390625,1.5303269624710083,-2.6817457675933842,-0.3138045370578766,Moving 
854,0.2476654052734375,1.0317840576171875,0.157928466796875,0.6795457601547241,-3.6085031032562256,-0.4220806658267975,Moving 
855,0.42254638671875,0.9618377685546876,0.141021728515625,0.0178873874247074,-0.8972069621086121,-0.3586524426937103,Moving 
856,0.2139739990234375,0.942138671875,-0.064666748046875,0.3781009614467621,2.1421804428100586,-0.224117249250412,Moving 
857,0.101715087890625,0.991912841796875,-0.0770416259765625,0.6601409316062927,1.4096686840057373,-0.2732906639575958,Moving 
858,0.0656890869140625,1.0640716552734375,-0.0956268310546875,0.2464931309223175,-0.9391450881958008,-0.2248461544513702,Moving 
859,-0.06915283203125,1.1697998046875,-0.129180908203125,0.1730133295059204,-2.6213552951812744,-0.457302838563919,Moving 
860,0.1836395263671875,0.97344970703125,0.0200347900390625,-0.0863596573472023,-0.1807093322277069,-0.7829786539077759,Moving 
861,0.48199462890625,1.034576416015625,-0.0123748779296875,-0.2204048037528991,0.6020352840423584,-0.5791214108467102,Moving 
862,0.6799468994140625,1.3316497802734375,-0.0004119873046875,-0.5895096063613892,0.3536946773529053,0.1588578224182129,Moving 
863,0.6870880126953125,1.10345458984375,0.234375,-1.6212555170059204,0.0083780381828546,1.0541039705276491,Moving 
864,0.0252838134765625,1.0093231201171875,0.4158935546875,-2.2221879959106445,2.0313732624053955,2.130633354187012,Moving 
865,-0.261383056640625,1.6324005126953125,-0.15289306640625,-2.6436069011688232,1.4206103086471558,1.1842502355575562,Moving 
866,-0.343963623046875,1.4116668701171875,-0.43853759765625,-2.1491045951843257,-1.9731613397598269,0.2521779239177704,Moving 
867,0.132171630859375,0.9669036865234376,-0.0185699462890625,-0.0717197284102439,1.4770351648330688,0.7987363338470459,Moving 
868,0.115966796875,0.8819427490234375,0.0520477294921875,-0.5877716541290283,1.3815864324569702,0.7675225138664246,Moving 
869,0.3826446533203125,0.7557525634765625,-0.1683349609375,-0.5201366543769836,1.7667666673660278,1.539987325668335,Moving 
870,0.0787353515625,0.733306884765625,-0.169036865234375,-0.4278315007686615,1.3501847982406616,0.9132336378097534,Moving 
871,-0.2110595703125,0.6949462890625,-0.1574554443359375,0.3862872421741485,0.9410175681114196,0.4221240878105163,Moving 
872,-0.3455810546875,0.5821685791015625,-0.0870513916015625,1.1568859815597534,0.5117263793945312,0.2207744568586349,Moving 
873,-0.3543548583984375,0.68804931640625,-0.08343505859375,1.8628838062286377,-0.4240841567516327,-0.6760700941085815,Moving 
874,-0.22552490234375,1.333465576171875,0.4366302490234375,1.2909390926361084,-0.6040598154067993,-1.3448617458343506,Moving 
875,1.51678466796875,1.8484649658203125,1.6988983154296875,-0.6710721254348755,1.6098891496658323,0.7987906336784363,Moving 
876,0.5096282958984375,0.678924560546875,0.4595184326171875,0.4591508209705353,0.2529537081718445,0.2134957760572433,Moving 
877,-0.328216552734375,1.429779052734375,-0.2203826904296875,-0.4669384360313415,-2.709038496017456,-0.1151713281869888,Moving 
878,0.004608154296875,1.3088531494140625,-0.418670654296875,0.2292113453149795,-0.4448736011981964,0.2498463243246078,Moving 
879,-0.098785400390625,0.481170654296875,-0.131591796875,0.4536846578121185,1.6335675716400146,-0.2901828289031982,Moving 
880,-0.084228515625,0.7445220947265625,-0.3193511962890625,0.7084897756576538,0.7289162278175354,-0.9427323937416076,Moving 
881,0.0485382080078125,1.2116241455078125,-0.4304046630859375,0.4242860376834869,-2.00198745727539,-0.1660704612731933,Moving 
882,0.0009765625,1.003692626953125,-0.3359527587890625,1.0542889833450315,-1.5202226638793943,-0.3458106517791748,Moving 
883,0.09918212890625,0.805877685546875,-0.145904541015625,0.9373605251312256,-0.1921662390232086,-0.5681654214859009,Moving 
884,0.217254638671875,0.9900970458984376,-0.058624267578125,0.6102420687675476,-0.5016857385635376,-0.6554505228996277,Moving 
885,0.4115447998046875,1.0059051513671875,0.044219970703125,0.7725428342819214,-2.294503927230835,-0.5578896403312683,Moving 
886,0.407745361328125,0.9654083251953124,0.033355712890625,0.3823894560337066,-1.522961139678955,-0.3985423147678375,Moving 
887,0.34625244140625,0.9783172607421876,-0.04522705078125,0.6855168342590332,0.5854679942131042,-0.1399997174739837,Moving 
888,0.104827880859375,0.9456634521484376,-0.051849365234375,1.1450377702713013,0.5770702362060547,-0.1405525803565979,Moving 
889,-0.003753662109375,1.06866455078125,0.0690460205078125,0.6496025323867798,-1.037662148475647,-0.3018003404140472,Moving 
890,-0.0416412353515625,1.1610565185546875,0.103240966796875,-0.3310674130916595,-1.5073227882385254,-0.5873000025749207,Moving 
891,0.2957305908203125,1.020111083984375,-0.112762451171875,-0.6297595500946045,0.3062187731266022,-0.7902216911315918,Moving 
892,0.4317626953125,1.02923583984375,-0.16473388671875,0.1383754462003708,0.5564536452293396,-0.4421979188919067,Moving 
893,0.2803802490234375,0.9974365234375,-0.003204345703125,-0.0534648224711418,-0.9139276146888732,-0.1402617692947387,Moving 
894,0.54742431640625,1.28131103515625,0.243682861328125,-1.1235407590866089,-0.6111674904823303,0.2763660848140716,Moving 
895,0.5001220703125,0.8579864501953125,0.3264312744140625,-2.4493722915649414,1.2723801136016846,1.806242108345032,Moving 
896,-0.2575836181640625,1.21441650390625,0.1663818359375,-2.8231656551361084,1.2701853513717651,2.1032454967498784,Moving 
897,-0.290283203125,1.72857666015625,-0.3978424072265625,-2.622671127319336,-1.621579647064209,1.1133019924163818,Moving 
898,-0.0728607177734375,1.258392333984375,-0.083831787109375,-0.9849339127540588,0.29420259594917303,0.8312929272651672,Moving 
899,0.26019287109375,0.918182373046875,0.2056121826171875,-0.338171124458313,2.6773273944854736,0.8112763762474059,Moving 
900,0.299285888671875,0.7462921142578125,-0.137481689453125,-0.1933188587427139,1.939000487327576,0.992613673210144,Moving 
901,0.4702606201171875,0.7278594970703125,-0.1600494384765625,-0.2922787368297577,2.8375661373138428,1.5673264265060425,Moving 
902,-0.0484466552734375,0.6966705322265625,-0.3319091796875,0.3249562382698059,1.104400634765625,0.6773699522018433,Moving 
903,-0.3362884521484375,0.6092376708984375,-0.225738525390625,1.2003774642944336,0.891235888004303,0.3462964296340942,Moving 
904,-0.349884033203125,0.635498046875,-0.1283416748046875,1.9119778871536253,0.6186195611953735,0.1844835579395294,Moving 
905,-0.426788330078125,0.9748992919921876,-0.07177734375,2.3758563995361333,-0.6037766933441162,-0.9384417533874512,Moving 
906,0.962432861328125,2.2400665283203125,3.051422119140625,-2.9045395851135254,3.8208956718444815,0.2940670549869537,Moving 
907,0.9337005615234376,0.8389892578125,0.7614288330078125,-0.1913819462060928,0.6690992712974548,0.718927800655365,Moving 
908,0.11773681640625,0.7237091064453125,0.0616455078125,0.6966890692710876,-0.7967320084571838,0.3752569854259491,Moving 
909,-0.3912506103515625,1.1533966064453125,-0.209228515625,0.2949666678905487,-2.0434067249298096,-0.5071039795875549,Moving 
910,0.2368011474609375,1.53302001953125,-0.15618896484375,0.7657583951950073,0.7697896361351013,-0.6602213382720947,Moving 
911,0.2102203369140625,0.8539581298828125,-0.2734375,0.2298321276903152,1.8553707599639893,0.2126544713973999,Moving 
912,-0.1383819580078125,0.514862060546875,-0.3874053955078125,0.9181892275810242,0.5473499298095703,-0.4158384799957275,Moving 
913,-0.1597137451171875,0.8974456787109375,-0.505462646484375,0.4281284511089325,-2.301102876663208,-0.4627319574356079,Moving 
914,-0.1259765625,1.146270751953125,-0.6020355224609375,1.1733959913253784,-1.2365970611572266,-0.4695794880390167,Moving 
915,0.0596923828125,0.883697509765625,-0.217864990234375,1.2056593894958496,0.3194669485092163,-0.5963597893714905,Moving 
916,0.1832275390625,1.002166748046875,-0.0372161865234375,0.6339266300201416,-0.1320152878761291,-0.5780966281890869,Moving 
917,0.525634765625,1.06964111328125,0.153472900390625,1.433098316192627,-4.485945701599121,-0.342020720243454,Moving 
918,0.5036163330078125,0.9740753173828124,0.3292083740234375,-0.2711276412010193,-2.2861125469207764,-0.0796311795711517,Moving 
919,0.30218505859375,0.9395751953125,0.0448455810546875,-0.3584822416305542,1.6512727737426758,0.0191185679286718,Moving 
920,0.1446533203125,0.9415435791015624,-0.1508636474609375,0.1765377521514892,2.4520082473754883,-0.1142014041543006,Moving 
921,0.08001708984375,0.9445648193359376,-0.1516265869140625,0.5268830060958862,0.6267760396003723,-0.2241204530000686,Moving 
922,0.075775146484375,1.0013427734375,-0.1692962646484375,0.4027692973613739,-1.6693577766418457,-0.2164963483810424,Moving 
923,0.003265380859375,1.1007080078125,-0.0841217041015625,0.3702427744865417,-2.1178224086761475,-0.437166690826416,Moving 
924,0.272979736328125,1.03326416015625,0.0744476318359375,-0.1211804896593093,-0.3963111340999603,-0.639505922794342,Moving 
925,0.3795928955078125,1.02545166015625,-0.0263214111328125,-0.3885980844497679,0.6195119619369507,-0.491755872964859,Moving 
926,0.585296630859375,1.2635955810546875,-0.0085906982421875,-0.5713766813278198,0.48815956711769104,-0.0216307267546653,Moving 
927,0.79388427734375,1.3174896240234375,0.1660003662109375,-1.313596487045288,0.6564798355102539,0.6530587673187256,Moving 
928,0.1948699951171875,0.8290252685546875,0.4619293212890625,-2.2128777503967285,2.2572450637817383,1.8678090572357176,Moving 
929,-0.2837066650390625,1.2957611083984375,-0.0848236083984375,-2.862970352172852,1.9318474531173704,1.3418318033218384,Moving 
930,-0.1427764892578125,1.6513519287109375,-0.5532989501953125,-2.5151686668396,-1.6262772083282468,0.726848304271698,Moving 
931,0.17620849609375,0.9909515380859376,-0.17962646484375,-0.5193625092506409,1.075564980506897,0.7974609732627869,Moving 
932,0.4111785888671875,0.97174072265625,0.1800689697265625,-0.0748164504766464,3.3579022884368896,0.8620335459709167,Moving 
933,0.1783599853515625,0.7929840087890625,-0.16082763671875,-0.712127149105072,1.7813210487365725,1.0610166788101196,Moving 
934,0.0579833984375,0.8087310791015625,-0.3138427734375,0.7524316906929016,-0.0996179357171058,1.4052531719207764,Moving 
935,-0.0355377197265625,0.7471923828125,0.0124359130859375,0.4256042838096618,1.5888330936431885,0.9682084321975708,Moving 
936,-0.0230712890625,0.7180938720703125,0.00689697265625,0.9761018157005309,1.5557560920715332,0.5231561660766602,Moving 
937,-0.00531005859375,0.9027099609375,0.140777587890625,0.9425393342971802,1.9855037927627563,0.1203575730323791,Moving 
938,0.2025146484375,0.9737548828125,0.39947509765625,0.6070380210876465,2.1878349781036377,-0.1032917648553848,Moving 
939,0.60528564453125,1.089874267578125,0.599945068359375,0.8111506700515747,3.402259349822998,0.0610212758183479,Moving 
940,0.418182373046875,0.8425140380859375,0.337432861328125,1.0250656604766846,2.531467199325561,0.3405069708824157,Moving 
941,-0.3078765869140625,1.1289825439453125,0.2007904052734375,1.1093772649765017,1.6045454740524292,0.1802800297737121,Moving 
942,-0.0933074951171875,0.9478607177734376,0.142486572265625,-0.1209993883967399,-1.5277215242385864,0.4172696769237518,Moving 
943,-0.1222686767578125,1.360076904296875,-0.393157958984375,1.1787824630737305,-1.2616124153137207,-0.2066940516233444,Moving 
944,0.2159881591796875,1.2435302734375,0.5387725830078125,0.5829435586929321,2.896188497543335,-0.5965571403503418,Moving 
945,0.25726318359375,0.7260589599609375,-0.24407958984375,0.3620690107345581,0.5295733213424683,-0.3904090225696563,Moving 
946,0.0491790771484375,0.71746826171875,-0.26947021484375,0.8127131462097168,1.0051507949829102,-0.2510503232479095,Moving 
947,0.0327301025390625,1.136871337890625,-0.109375,1.0502524375915527,1.5645102262496948,-0.1733081340789795,Moving 
948,0.2077484130859375,1.012420654296875,0.1900634765625,1.4732450246810913,1.4239493608474731,-0.2780643701553345,Moving 
949,0.20220947265625,0.968841552734375,0.2639617919921875,0.1848484128713607,1.552129149436951,-0.0934180989861488,Moving 
950,0.15533447265625,1.032135009765625,-0.0418243408203125,-0.0475440844893455,1.8204306364059448,-0.1228710636496543,Moving 
951,0.2357177734375,0.9603118896484376,-0.1876068115234375,-0.0463885366916656,2.863554239273072,-0.1614568084478378,Moving 
952,0.286865234375,0.9315032958984376,-0.2182159423828125,0.1077794581651687,2.0445420742034908,0.0947044044733047,Moving 
953,0.2903900146484375,0.9888916015625,-0.201416015625,0.4201157987117767,1.2086948156356812,0.3263032734394073,Moving 
954,0.216033935546875,1.0150299072265625,-0.1365814208984375,0.8038602471351624,1.2086117267608645,0.4659149646759033,Moving 
955,0.079620361328125,1.0110626220703125,-0.06878662109375,1.0352596044540403,1.0803139209747314,0.4614491164684295,Moving 
956,-0.05322265625,1.025482177734375,0.012420654296875,0.7432371377944946,0.7041347026824951,0.2096493691205978,Moving 
957,-0.07275390625,1.0019073486328125,0.0247802734375,0.0785312950611114,0.8803014755249023,-0.100482665002346,Moving 
958,0.07452392578125,0.973236083984375,-0.0734100341796875,-0.1747971028089523,1.4849224090576172,-0.3385029435157776,Moving 
959,0.22918701171875,0.9757080078125,-0.15643310546875,-0.0022455775178968,1.385324239730835,-0.2743130326271057,Moving 
